Timestamp, COUNTER_MEMS, INTERPOLATED_MEMS, Q0, Q1, Q2, Q3, ACCX, ACCY, ACCZ, MAGX, MAGY, MAGZ
1614249256,4223, 10, 0, 0,712679, -0,295715, 0,487915, -0,408142, -3,883116, -3,999939, 3,999939, 44,113832, -124,266423, 7,028305
1614249256,4534, 11, 0, 0,712781, -0,295654, 0,487854, -0,408081, -3,880674, -3,999939, 3,999939, 44,263371, -123,369192, 5,383383
1614249256,4844, 12, 0, 0,712721, -0,295715, 0,487854, -0,408142, -3,879698, -3,999939, 3,999939, 43,665217, -122,771038, 5,831998
1614249256,5155, 13, 0, 0,712746, -0,295654, 0,487854, -0,408142, -3,87921, -3,999939, 3,999939, 44,263371, -122,920577, 6,878767
1614249256,5466, 14, 0, 0,712679, -0,295715, 0,487915, -0,408142, -3,877745, -3,999939, 3,999939, 44,412909, -122,471962, 5,233845
1614249256,5778, 15, 0, 0,712746, -0,295654, 0,487854, -0,408142, -3,88751, -3,999939, 3,999939, 43,814755, -124,116884, 5,68246
1614249256,6089, 16, 0, 0,712695, -0,295593, 0,487915, -0,408203, -3,866514, -3,999939, 3,999939, 43,515679, -122,920577, 5,68246
1614249256,64, 17, 0, 0,712704, -0,295471, 0,487976, -0,408203, -3,884092, -3,999939, 3,999939, 43,814755, -124,415961, 6,430152
1614249256,6712, 18, 0, 0,712704, -0,295471, 0,487976, -0,408203, -3,884092, -3,999939, 3,999939, 43,665217, -122,471962, 6,57969
1614249256,7025, 19, 0, 0,712627, -0,295471, 0,488037, -0,408264, -3,872862, -3,999939, 3,999939, 44,861524, -123,219654, 4,785229
1614249256,7338, 20, 0, 0,712548, -0,295593, 0,487976, -0,408386, -3,870909, -3,999939, 3,999939, 43,067063, -124,415961, 6,131075
1614249256,7651, 21, 0, 0,712548, -0,295593, 0,487976, -0,408386, -3,87042, -3,999939, 3,999939, 43,814755, -124,116884, 6,878767
1614249256,7964, 22, 0, 0,712532, -0,295532, 0,488037, -0,408386, -3,888975, -3,999939, 3,999939, 44,263371, -124,415961, 5,68246
1614249256,8275, 23, 0, 0,712453, -0,295654, 0,487976, -0,408508, -3,883604, -3,999939, 3,999939, 44,711986, -123,369192, 5,383383
1614249256,8586, 24, 0, 0,712468, -0,295532, 0,487976, -0,408569, -3,87335, -3,999939, 3,999939, 44,263371, -123,369192, 6,131075
1614249256,8897, 25, 0, 0,71251, -0,295532, 0,487915, -0,408569, -3,87628, -3,999939, 3,999939, 44,263371, -122,6215, 4,934768
1614249256,9209, 26, 0, 0,712517, -0,295532, 0,487854, -0,40863, -3,87335, -3,999939, 3,999939, 44,412909, -123,51873, 7,028305
1614249256,9521, 27, 0, 0,712485, -0,295593, 0,487915, -0,408569, -3,87921, -3,999939, 3,999939, 45,758755, -124,415961, 5,68246
1614249256,9837, 28, 0, 0,712466, -0,295654, 0,487854, -0,40863, -3,87042, -3,999939, 3,999939, 44,263371, -123,369192, 5,383383
1614249257,015, 29, 0, 0,712425, -0,295654, 0,487915, -0,40863, -3,87921, -3,999939, 3,999939, 43,665217, -123,219654, 6,280613
1614249257,0463, 30, 0, 0,712425, -0,295654, 0,487915, -0,40863, -3,868956, -3,999939, 3,999939, 44,412909, -123,51873, 5,233845
1614249257,0776, 31, 0, 0,712389, -0,295654, 0,487915, -0,408691, -3,882139, -3,999939, 3,999939, 44,711986, -122,920577, 7,476921
1614249257,1089, 0, 0, 0,712366, -0,295593, 0,488037, -0,40863, -3,880674, -3,999939, 3,999939, 43,515679, -123,668269, 6,878767
1614249257,1404, 1, 0, 0,712366, -0,295593, 0,488037, -0,40863, -3,885069, -3,999939, 3,999939, 43,814755, -123,668269, 5,383383
1614249257,172, 2, 0, 0,712366, -0,295593, 0,488037, -0,40863, -3,882628, -3,999939, 3,999939, 42,46891, -122,771038, 5,233845
1614249257,2035, 3, 0, 0,712477, -0,29541, 0,488037, -0,408569, -3,881163, -3,999939, 3,999939, 44,861524, -123,51873, 5,532921
1614249257,235, 4, 0, 0,712487, -0,295471, 0,488037, -0,408508, -3,869932, -3,999939, 3,999939, 44,113832, -123,817807, 5,831998
1614249257,2665, 5, 0, 0,712502, -0,295349, 0,488037, -0,408569, -3,874327, -3,999939, 3,999939, 44,113832, -124,266423, 5,233845
1614249257,2981, 6, 0, 0,712572, -0,295166, 0,488098, -0,408508, -3,871885, -3,999939, 3,999939, 43,515679, -122,920577, 7,177844
1614249257,3296, 7, 0, 0,712597, -0,295105, 0,488098, -0,408508, -3,879698, -3,999939, 3,999939, 44,711986, -124,415961, 4,635691
1614249257,3611, 8, 0, 0,712657, -0,295044, 0,488098, -0,408447, -3,888975, -3,999939, 3,999939, 45,011063, -122,920577, 6,430152
1614249257,3926, 9, 0, 0,712657, -0,295044, 0,488098, -0,408447, -3,882628, -3,999939, 3,999939, 43,067063, -124,116884, 6,430152
1614249257,4241, 10, 0, 0,712664, -0,295044, 0,488037, -0,408508, -3,876768, -3,999939, 3,999939, 42,917525, -124,266423, 4,486152
1614249257,4556, 11, 0, 0,712706, -0,295044, 0,487976, -0,408508, -3,886534, -3,999939, 3,999939, 44,263371, -124,116884, 4,635691
1614249257,4871, 12, 0, 0,712699, -0,295044, 0,488037, -0,408447, -3,877745, -3,999939, 3,999939, 43,515679, -122,920577, 6,878767
1614249257,5186, 13, 0, 0,712759, -0,294983, 0,488037, -0,408386, -3,873838, -3,999939, 3,999939, 44,113832, -122,471962, 5,532921
1614249257,5502, 14, 0, 0,712724, -0,294983, 0,488037, -0,408447, -3,877256, -3,999939, 3,999939, 43,665217, -123,817807, 6,57969
1614249257,5817, 15, 0, 0,712689, -0,294983, 0,488037, -0,408508, -3,876768, -3,999939, 3,999939, 44,861524, -123,51873, 6,57969
1614249257,6132, 16, 0, 0,712689, -0,294983, 0,488037, -0,408508, -3,87628, -3,999939, 3,999939, 43,36614, -124,266423, 4,037537
1614249257,6447, 17, 0, 0,712612, -0,294983, 0,488098, -0,408569, -3,878721, -3,999939, 3,999939, 42,917525, -123,51873, 6,57969
1614249257,6762, 18, 0, 0,712679, -0,294922, 0,488037, -0,408569, -3,880186, -3,999939, 3,999939, 44,711986, -124,715038, 5,68246
1614249257,7077, 19, 0, 0,712705, -0,294861, 0,488037, -0,408569, -3,872374, -3,999939, 3,999939, 43,665217, -123,51873, 3,73846
1614249257,7392, 20, 0, 0,71273, -0,2948, 0,488037, -0,408569, -3,87921, -3,999939, 3,999939, 45,011063, -124,116884, 5,383383
1614249257,7708, 21, 0, 0,71273, -0,2948, 0,488037, -0,408569, -3,871885, -3,999939, 3,999939, 44,412909, -123,51873, 5,831998
1614249257,8023, 22, 0, 0,71273, -0,2948, 0,488037, -0,408569, -3,876768, -3,999939, 3,999939, 44,412909, -124,565499, 5,532921
1614249257,8338, 23, 0, 0,712713, -0,294739, 0,488098, -0,408569, -3,876768, -3,999939, 3,999939, 43,814755, -122,6215, 4,934768
1614249257,8653, 24, 0, 0,712713, -0,294739, 0,488098, -0,408569, -3,87921, -3,999939, 3,999939, 42,917525, -123,817807, 6,57969
1614249257,8968, 25, 0, 0,712663, -0,294861, 0,488098, -0,408569, -3,867002, -3,999939, 3,999939, 45,011063, -123,369192, 6,430152
1614249257,9283, 26, 0, 0,712638, -0,294922, 0,488098, -0,408569, -3,875792, -3,999939, 3,999939, 44,263371, -124,415961, 5,383383
1614249257,9598, 27, 0, 0,712663, -0,294861, 0,488098, -0,408569, -3,888487, -3,999939, 3,999939, 45,160601, -122,471962, 6,280613
1614249257,9913, 28, 0, 0,712663, -0,294861, 0,488098, -0,408569, -3,878721, -3,999939, 3,999939, 44,412909, -124,266423, 5,532921
1614249258,0228, 29, 0, 0,712695, -0,2948, 0,488037, -0,40863, -3,87042, -3,999939, 3,999939, 43,515679, -122,322423, 7,177844
1614249258,0545, 30, 0, 0,71272, -0,294739, 0,488037, -0,40863, -3,872374, -3,999939, 3,999939, 43,665217, -123,219654, 6,280613
1614249258,086, 31, 0, 0,712705, -0,294861, 0,488037, -0,408569, -3,87921, -3,999939, 3,999939, 43,515679, -122,920577, 7,177844
1614249258,1175, 0, 0, 0,71273, -0,2948, 0,488037, -0,408569, -3,869932, -3,999939, 3,999939, 43,515679, -122,920577, 5,383383
1614249258,149, 1, 0, 0,71273, -0,2948, 0,488037, -0,408569, -3,889952, -3,999939, 3,999939, 43,36614, -123,219654, 5,233845
1614249258,1805, 2, 0, 0,71266, -0,2948, 0,488037, -0,408691, -3,879698, -3,999939, 3,999939, 44,861524, -124,266423, 6,280613
1614249258,212, 3, 0, 0,712695, -0,2948, 0,488037, -0,40863, -3,875792, -3,999939, 3,999939, 42,917525, -124,565499, 5,233845
1614249258,2435, 4, 0, 0,712704, -0,294678, 0,488098, -0,40863, -3,884581, -3,999939, 3,999939, 43,515679, -124,116884, 4,635691
1614249258,275, 5, 0, 0,712669, -0,294678, 0,488098, -0,408691, -3,881163, -3,999939, 3,999939, 44,113832, -124,565499, 6,57969
1614249258,3065, 6, 0, 0,712736, -0,294617, 0,488037, -0,408691, -3,87921, -3,999939, 3,999939, 42,319371, -122,322423, 6,131075
1614249258,3381, 7, 0, 0,71278, -0,294678, 0,488037, -0,408569, -3,875792, -3,999939, 3,999939, 43,665217, -124,565499, 5,831998
1614249258,3695, 8, 0, 0,712723, -0,2948, 0,488098, -0,408508, -3,879698, -3,999939, 3,999939, 44,412909, -124,565499, 5,831998
1614249258,401, 9, 0, 0,712758, -0,2948, 0,488098, -0,408447, -3,886046, -3,999939, 3,999939, 44,861524, -123,817807, 6,280613
1614249258,4325, 10, 0, 0,712783, -0,294739, 0,488098, -0,408447, -3,871885, -3,999939, 3,999939, 44,113832, -124,266423, 5,831998
1614249258,4641, 11, 0, 0,7128, -0,2948, 0,488037, -0,408447, -3,889952, -3,999939, 3,999939, 44,861524, -123,51873, 5,831998
1614249258,4956, 12, 0, 0,712781, -0,294861, 0,487976, -0,408508, -3,866026, -3,999939, 3,999939, 44,113832, -124,266423, 5,831998
1614249258,5271, 13, 0, 0,712748, -0,294739, 0,488098, -0,408508, -3,875303, -3,999939, 3,999939, 44,113832, -124,266423, 5,831998
1614249258,5586, 14, 0, 0,712818, -0,294739, 0,488098, -0,408386, -3,871885, -3,999939, 3,999939, 43,067063, -122,920577, 5,68246
1614249258,5901, 15, 0, 0,712811, -0,294739, 0,488159, -0,408325, -3,891905, -3,999939, 3,999939, 44,113832, -122,471962, 6,280613
1614249258,6216, 16, 0, 0,712811, -0,294739, 0,488159, -0,408325, -3,879698, -3,999939, 3,999939, 43,814755, -124,116884, 5,383383
1614249258,6531, 17, 0, 0,712846, -0,294739, 0,488159, -0,408264, -3,867979, -3,999939, 3,999939, 44,711986, -123,668269, 6,430152
1614249258,6846, 18, 0, 0,712853, -0,294739, 0,488098, -0,408325, -3,882139, -3,999939, 3,999939, 45,459678, -124,715038, 5,68246
1614249258,7161, 19, 0, 0,71281, -0,294861, 0,488037, -0,408386, -3,878721, -3,999939, 3,999939, 44,263371, -122,6215, 4,635691
1614249258,7474, 20, 0, 0,712893, -0,294861, 0,487915, -0,408386, -3,877745, -3,999939, 3,999939, 44,113832, -124,266423, 5,233845
1614249258,7791, 21, 0, 0,712893, -0,294861, 0,487915, -0,408386, -3,883116, -3,999939, 3,999939, 44,113832, -123,817807, 4,486152
1614249258,8105, 22, 0, 0,712893, -0,294861, 0,487915, -0,408386, -3,877745, -3,999939, 3,999939, 44,263371, -122,322423, 4,934768
1614249258,8421, 23, 0, 0,712977, -0,294861, 0,487793, -0,408386, -3,881651, -3,999939, 3,999939, 44,711986, -122,322423, 5,383383
1614249258,8736, 24, 0, 0,712977, -0,294861, 0,487793, -0,408386, -3,87042, -3,999939, 3,999939, 44,412909, -123,219654, 5,831998
1614249258,9051, 25, 0, 0,71291, -0,294922, 0,487854, -0,408386, -3,874815, -3,999939, 3,999939, 44,263371, -123,369192, 4,934768
1614249258,9366, 26, 0, 0,712935, -0,294861, 0,487854, -0,408386, -3,87628, -3,999939, 3,999939, 43,665217, -123,51873, 5,532921
1614249258,9681, 27, 0, 0,712925, -0,2948, 0,487854, -0,408447, -3,868467, -3,999939, 3,999939, 42,767987, -125,163653, 6,430152
1614249258,9996, 28, 0, 0,712982, -0,294678, 0,487793, -0,408508, -3,877256, -3,999939, 3,999939, 44,113832, -124,266423, 5,831998
1614249259,0311, 29, 0, 0,712915, -0,294739, 0,487854, -0,408508, -3,878721, -3,999939, 3,999939, 43,36614, -123,219654, 7,327382
1614249259,0626, 30, 0, 0,712874, -0,294739, 0,487915, -0,408508, -3,877745, -3,999939, 3,999939, 45,459678, -123,369192, 6,131075
1614249259,0941, 31, 0, 0,712883, -0,2948, 0,487915, -0,408447, -3,85333, -3,999939, 3,999939, 44,861524, -125,014115, 6,57969
1614249259,1257, 0, 0, 0,712925, -0,2948, 0,487854, -0,408447, -3,867979, -3,999939, 3,999939, 44,412909, -125,014115, 5,532921
1614249259,1572, 1, 0, 0,712858, -0,294861, 0,487915, -0,408447, -3,868956, -3,999939, 3,999939, 44,263371, -123,668269, 5,68246
1614249259,1887, 2, 0, 0,712875, -0,294922, 0,487854, -0,408447, -3,877745, -3,999939, 3,999939, 44,711986, -123,668269, 4,934768
1614249259,2202, 3, 0, 0,712953, -0,2948, 0,487915, -0,408325, -3,869932, -3,999939, 3,999939, 43,665217, -123,219654, 5,831998
1614249259,2517, 4, 0, 0,712893, -0,294861, 0,487915, -0,408386, -3,878233, -3,999939, 3,999939, 44,861524, -123,51873, 4,486152
1614249259,2832, 5, 0, 0,71287, -0,2948, 0,488037, -0,408325, -3,867979, -3,999939, 3,999939, 44,412909, -123,817807, 5,233845
1614249259,3148, 6, 0, 0,71286, -0,294739, 0,488037, -0,408386, -3,871885, -3,999939, 3,999939, 44,263371, -122,6215, 4,635691
1614249259,3463, 7, 0, 0,712911, -0,294617, 0,488037, -0,408386, -3,887022, -3,999939, 3,999939, 44,711986, -123,668269, 5,383383
1614249259,3778, 8, 0, 0,712876, -0,294617, 0,488037, -0,408447, -3,875792, -3,999939, 3,999939, 42,917525, -123,817807, 6,280613
1614249259,4093, 9, 0, 0,712869, -0,294617, 0,488098, -0,408386, -3,883604, -3,999939, 3,999939, 43,36614, -125,612268, 6,280613
1614249259,4408, 10, 0, 0,712869, -0,294617, 0,488098, -0,408386, -3,875303, -3,999939, 3,999939, 44,263371, -123,369192, 5,383383
1614249259,4723, 11, 0, 0,712869, -0,294617, 0,488098, -0,408386, -3,871397, -3,999939, 3,999939, 44,113832, -124,266423, 4,785229
1614249259,5039, 12, 0, 0,712859, -0,294556, 0,488098, -0,408447, -3,885557, -3,999939, 3,999939, 43,515679, -122,920577, 6,430152
1614249259,5354, 13, 0, 0,712876, -0,294617, 0,488037, -0,408447, -3,879698, -3,999939, 3,999939, 44,113832, -123,817807, 5,831998
1614249259,5669, 14, 0, 0,712943, -0,294556, 0,487976, -0,408447, -3,871885, -3,999939, 3,999939, 43,814755, -124,415961, 5,383383
1614249259,5984, 15, 0, 0,712911, -0,294617, 0,488037, -0,408386, -3,863584, -3,999939, 3,999939, 44,113832, -123,51873, 6,280613
1614249259,6299, 16, 0, 0,712866, -0,294556, 0,488037, -0,408508, -3,882139, -3,999939, 3,999939, 44,412909, -123,817807, 6,280613
1614249259,6614, 17, 0, 0,712866, -0,294556, 0,488037, -0,408508, -3,877256, -3,999939, 3,999939, 44,711986, -124,116884, 7,177844
1614249259,6928, 18, 0, 0,712892, -0,294678, 0,487976, -0,408447, -3,883116, -3,999939, 3,999939, 46,057832, -124,266423, 5,831998
1614249259,7243, 19, 0, 0,712952, -0,294617, 0,487976, -0,408386, -3,867491, -3,999939, 3,999939, 44,113832, -123,817807, 6,280613
1614249259,7558, 20, 0, 0,712934, -0,294678, 0,487915, -0,408447, -3,874815, -3,999939, 3,999939, 44,412909, -123,817807, 5,532921
1614249259,7873, 21, 0, 0,712841, -0,294617, 0,488037, -0,408508, -3,874327, -3,999939, 3,999939, 44,412909, -123,219654, 5,532921
1614249259,8188, 22, 0, 0,712815, -0,294678, 0,488037, -0,408508, -3,874327, -3,999939, 3,999939, 43,665217, -123,219654, 5,532921
1614249259,8503, 23, 0, 0,71285, -0,294678, 0,488037, -0,408447, -3,885557, -3,999939, 3,999939, 44,711986, -123,369192, 6,430152
1614249259,8818, 24, 0, 0,712902, -0,294739, 0,487976, -0,408386, -3,867491, -3,999939, 3,999939, 43,814755, -122,920577, 6,430152
1614249259,9133, 25, 0, 0,712867, -0,294739, 0,487976, -0,408447, -3,865537, -3,999939, 3,999939, 44,263371, -123,369192, 6,430152
1614249259,9448, 26, 0, 0,71285, -0,294678, 0,488037, -0,408447, -3,874327, -3,999939, 3,999939, 43,814755, -122,6215, 5,383383
1614249259,9763, 27, 0, 0,71285, -0,294678, 0,488037, -0,408447, -3,879698, -3,999939, 3,999939, 44,113832, -123,51873, 5,233845
1614249260,0076, 28, 0, 0,71285, -0,294678, 0,488037, -0,408447, -3,879698, -3,999939, 3,999939, 43,814755, -123,369192, 5,68246
1614249260,039, 29, 0, 0,71279, -0,294739, 0,488037, -0,408508, -3,87921, -3,999939, 3,999939, 41,571679, -123,668269, 6,430152
1614249260,0705, 30, 0, 0,712783, -0,294739, 0,488098, -0,408447, -3,882628, -3,999939, 3,999939, 44,412909, -123,817807, 5,532921
1614249260,102, 31, 0, 0,71285, -0,294678, 0,488037, -0,408447, -3,877745, -3,999939, 3,999939, 43,36614, -123,817807, 5,831998
1614249260,1336, 0, 0, 0,712857, -0,294678, 0,487976, -0,408508, -3,875792, -3,999939, 3,999939, 45,011063, -124,415961, 7,476921
1614249260,1651, 1, 0, 0,71285, -0,294678, 0,488037, -0,408447, -3,87335, -3,999939, 3,999939, 42,46891, -124,266423, 4,785229
1614249260,1966, 2, 0, 0,712917, -0,294617, 0,487976, -0,408447, -3,878721, -3,999939, 3,999939, 45,011063, -124,116884, 5,383383
1614249260,2281, 3, 0, 0,712996, -0,294495, 0,488037, -0,408325, -3,868956, -3,999939, 3,999939, 44,263371, -122,6215, 8,224613
1614249260,2596, 4, 0, 0,712964, -0,294556, 0,488098, -0,408264, -3,871397, -3,999939, 3,999939, 42,319371, -123,369192, 5,68246
1614249260,2911, 5, 0, 0,713022, -0,294617, 0,487976, -0,408264, -3,88751, -3,999939, 3,999939, 44,263371, -123,369192, 6,430152
1614249260,3224, 6, 0, 0,713019, -0,294556, 0,487915, -0,408386, -3,85919, -3,999939, 3,999939, 43,665217, -124,565499, 6,280613
1614249260,3539, 7, 0, 0,713019, -0,294556, 0,487915, -0,408386, -3,894347, -3,999939, 3,999939, 43,515679, -123,369192, 6,430152
1614249260,3852, 8, 0, 0,713045, -0,294495, 0,487915, -0,408386, -3,864073, -3,999939, 3,999939, 44,412909, -123,51873, 6,280613
1614249260,4165, 9, 0, 0,713071, -0,294617, 0,487854, -0,408325, -3,871397, -3,999939, 3,999939, 45,160601, -123,51873, 5,532921
1614249260,4481, 10, 0, 0,713121, -0,294495, 0,487854, -0,408325, -3,889464, -3,999939, 3,999939, 44,113832, -122,471962, 3,73846
1614249260,4796, 11, 0, 0,713191, -0,294495, 0,487854, -0,408203, -3,87628, -3,999939, 3,999939, 42,917525, -123,219654, 5,831998
1614249260,5111, 12, 0, 0,71321, -0,294434, 0,487915, -0,408142, -3,87628, -3,999939, 3,999939, 44,113832, -123,817807, 6,280613
1614249260,5426, 13, 0, 0,713149, -0,294495, 0,487915, -0,408203, -3,887022, -3,999939, 3,999939, 44,263371, -122,322423, 6,131075
1614249260,5741, 14, 0, 0,713219, -0,294495, 0,487915, -0,408081, -3,87628, -3,999939, 3,999939, 43,814755, -125,46273, 5,383383
1614249260,6056, 15, 0, 0,713168, -0,294434, 0,487976, -0,408142, -3,866514, -3,999939, 3,999939, 43,067063, -125,46273, 6,430152
1614249260,6371, 16, 0, 0,713203, -0,294434, 0,487976, -0,408081, -3,867491, -3,999939, 3,999939, 44,412909, -123,219654, 7,028305
1614249260,6684, 17, 0, 0,713108, -0,294495, 0,487976, -0,408203, -3,871885, -3,999939, 3,999939, 44,263371, -124,415961, 6,430152
1614249260,6997, 18, 0, 0,713177, -0,294495, 0,487976, -0,408081, -3,875792, -3,999939, 3,999939, 44,263371, -123,668269, 5,68246
1614249260,731, 19, 0, 0,713154, -0,294434, 0,488098, -0,40802, -3,880674, -3,999939, 3,999939, 45,609216, -123,219654, 5,532921
1614249260,7624, 20, 0, 0,713154, -0,294434, 0,488098, -0,40802, -3,885069, -3,999939, 3,999939, 44,412909, -124,266423, 7,028305
1614249260,794, 21, 0, 0,713087, -0,294495, 0,488159, -0,40802, -3,877256, -3,999939, 3,999939, 44,412909, -124,266423, 6,280613
1614249260,8253, 22, 0, 0,713077, -0,294434, 0,488159, -0,408081, -3,869932, -3,999939, 3,999939, 43,665217, -122,471962, 5,532921
1614249260,8566, 23, 0, 0,713077, -0,294434, 0,488159, -0,408081, -3,883116, -3,999939, 3,999939, 43,665217, -123,219654, 5,831998
1614249260,8879, 24, 0, 0,713109, -0,294373, 0,488098, -0,408142, -3,87042, -3,999939, 3,999939, 44,412909, -123,51873, 5,831998
1614249260,9194, 25, 0, 0,713103, -0,294373, 0,488159, -0,408081, -3,889464, -3,999939, 3,999939, 45,011063, -123,668269, 4,635691
1614249260,9509, 26, 0, 0,713121, -0,294312, 0,48822, -0,40802, -3,880674, -3,999939, 3,999939, 43,515679, -123,668269, 5,68246
1614249260,9824, 27, 0, 0,713093, -0,294312, 0,488159, -0,408142, -3,869444, -3,999939, 3,999939, 46,356909, -122,471962, 6,280613
1614249261,0137, 28, 0, 0,713128, -0,294312, 0,488159, -0,408081, -3,881163, -3,999939, 3,999939, 44,711986, -124,116884, 6,878767
1614249261,045, 29, 0, 0,713195, -0,29425, 0,488098, -0,408081, -3,867979, -3,999939, 3,999939, 43,665217, -124,565499, 4,037537
1614249261,0763, 30, 0, 0,71323, -0,29425, 0,488098, -0,40802, -3,868956, -3,999939, 3,999939, 45,011063, -122,6215, 5,383383
1614249261,1077, 31, 0, 0,713198, -0,294312, 0,488159, -0,407959, -3,885557, -3,999939, 3,999939, 43,36614, -124,266423, 6,280613
1614249261,1392, 0, 0, 0,71323, -0,29425, 0,488098, -0,40802, -3,884092, -3,999939, 3,999939, 44,711986, -120,079347, 4,934768
1614249261,1705, 1, 0, 0,71323, -0,29425, 0,488098, -0,40802, -3,867979, -3,999939, 3,999939, 45,011063, -120,827039, 7,177844
1614249261,2018, 2, 0, 0,713227, -0,294189, 0,488037, -0,408142, -3,877745, -3,999939, 3,999939, 44,861524, -122,471962, 5,233845
1614249261,2331, 3, 0, 0,713167, -0,29425, 0,488037, -0,408203, -3,884092, -3,999939, 3,999939, 44,113832, -123,817807, 5,532921
1614249261,2646, 4, 0, 0,713202, -0,29425, 0,488037, -0,408142, -3,87628, -3,999939, 3,999939, 43,36614, -123,817807, 5,532921
1614249261,2961, 5, 0, 0,713202, -0,29425, 0,488037, -0,408142, -3,886046, -3,999939, 3,999939, 44,412909, -124,266423, 5,532921
1614249261,3276, 6, 0, 0,71317, -0,294312, 0,488098, -0,408081, -3,886534, -3,999939, 3,999939, 43,665217, -124,565499, 6,280613
1614249261,3589, 7, 0, 0,713137, -0,294373, 0,488159, -0,40802, -3,884092, -3,999939, 3,999939, 43,814755, -124,415961, 4,934768
1614249261,3903, 8, 0, 0,713163, -0,294312, 0,488159, -0,40802, -3,873838, -3,999939, 3,999939, 43,814755, -122,920577, 6,131075
1614249261,4219, 9, 0, 0,713204, -0,294312, 0,488098, -0,40802, -3,879698, -3,999939, 3,999939, 43,665217, -123,51873, 6,57969
1614249261,4531, 10, 0, 0,713172, -0,294373, 0,488159, -0,407959, -3,88751, -3,999939, 3,999939, 45,011063, -124,415961, 6,131075
1614249261,4844, 11, 0, 0,713121, -0,294312, 0,48822, -0,40802, -3,887022, -3,999939, 3,999939, 43,814755, -124,415961, 5,383383
1614249261,5157, 12, 0, 0,713071, -0,294434, 0,48822, -0,40802, -3,883116, -3,999939, 3,999939, 43,36614, -122,471962, 5,532921
1614249261,5469, 13, 0, 0,713051, -0,294312, 0,48822, -0,408142, -3,885069, -3,999939, 3,999939, 41,721218, -123,817807, 5,831998
1614249261,5784, 14, 0, 0,713044, -0,294312, 0,488281, -0,408081, -3,87628, -3,999939, 3,999939, 43,814755, -125,911345, 6,131075
1614249261,6097, 15, 0, 0,713044, -0,294312, 0,488281, -0,408081, -3,877745, -3,999939, 3,999939, 42,767987, -123,369192, 6,430152
1614249261,641, 16, 0, 0,713103, -0,294373, 0,488159, -0,408081, -3,871885, -3,999939, 3,999939, 43,515679, -124,415961, 6,131075
1614249261,6725, 17, 0, 0,713204, -0,294312, 0,488098, -0,40802, -3,883116, -3,999939, 3,999939, 44,412909, -123,51873, 5,831998
1614249261,7038, 18, 0, 0,713121, -0,294312, 0,48822, -0,40802, -3,880674, -3,999939, 3,999939, 44,711986, -122,322423, 6,430152
1614249261,7351, 19, 0, 0,713172, -0,294373, 0,488159, -0,407959, -3,871397, -3,999939, 3,999939, 43,515679, -123,668269, 6,430152
1614249261,7664, 20, 0, 0,713223, -0,29425, 0,488159, -0,407959, -3,889952, -3,999939, 3,999939, 44,263371, -122,6215, 5,68246
1614249261,7977, 21, 0, 0,713299, -0,29425, 0,488098, -0,407898, -3,880186, -3,999939, 3,999939, 43,36614, -123,817807, 5,532921
1614249261,8291, 22, 0, 0,713323, -0,294312, 0,487976, -0,407959, -3,891417, -3,999939, 3,999939, 43,067063, -124,116884, 5,383383
1614249261,8603, 23, 0, 0,713323, -0,294312, 0,487976, -0,407959, -3,877745, -3,999939, 3,999939, 44,113832, -123,817807, 6,280613
1614249261,8915, 24, 0, 0,713323, -0,294312, 0,487976, -0,407959, -3,891417, -3,999939, 3,999939, 42,917525, -123,51873, 6,280613
1614249261,9228, 25, 0, 0,713256, -0,294373, 0,488037, -0,407959, -3,871397, -3,999939, 3,999939, 44,263371, -124,715038, 5,68246
1614249261,9541, 26, 0, 0,713256, -0,294373, 0,488037, -0,407959, -3,873838, -3,999939, 3,999939, 43,36614, -123,51873, 4,037537
1614249261,9854, 27, 0, 0,713256, -0,294373, 0,488037, -0,407959, -3,882628, -3,999939, 3,999939, 43,665217, -123,817807, 6,280613
1614249262,017, 28, 0, 0,713249, -0,294373, 0,488098, -0,407898, -3,877256, -3,999939, 3,999939, 42,917525, -122,471962, 7,327382
1614249262,0483, 29, 1, 0,713246, -0,294464, 0,488098, -0,407837, -3,868711, -3,999939, 3,999939, 44,263371, -123,369192, 5,68246
1614249262,0798, 30, 0, 0,713243, -0,294556, 0,488098, -0,407776, -3,860166, -3,999939, 3,999939, 45,609216, -124,266423, 4,037537
1614249262,1111, 31, 0, 0,713253, -0,294617, 0,488098, -0,407715, -3,87628, -3,999939, 3,999939, 44,412909, -124,266423, 5,831998
1614249262,1423, 0, 0, 0,713262, -0,294495, 0,488159, -0,407715, -3,888487, -3,999939, 3,999939, 43,067063, -122,920577, 5,68246
1614249262,1734, 1, 0, 0,713262, -0,294495, 0,488159, -0,407715, -3,878721, -3,999939, 3,999939, 44,113832, -125,313191, 5,532921
1614249262,2045, 2, 0, 0,713331, -0,294495, 0,488159, -0,407593, -3,874327, -3,999939, 3,999939, 44,711986, -123,668269, 5,68246
1614249262,2355, 3, 0, 0,713273, -0,294434, 0,488281, -0,407593, -3,884092, -3,999939, 3,999939, 43,814755, -122,920577, 6,430152
1614249262,2666, 4, 0, 0,713315, -0,294434, 0,48822, -0,407593, -3,872862, -3,999939, 3,999939, 42,917525, -122,771038, 5,831998
1614249262,2977, 5, 0, 0,713315, -0,294434, 0,48822, -0,407593, -3,884092, -3,999939, 3,999939, 43,067063, -125,163653, 5,68246
1614249262,3288, 6, 0, 0,713238, -0,294434, 0,488281, -0,407654, -3,866514, -3,999939, 3,999939, 44,861524, -124,266423, 6,280613
1614249262,3599, 7, 0, 0,713298, -0,294373, 0,488281, -0,407593, -3,87628, -3,999939, 3,999939, 43,814755, -124,116884, 6,131075
1614249262,391, 8, 0, 0,713266, -0,294434, 0,488342, -0,407532, -3,878233, -3,999939, 3,999939, 45,011063, -122,920577, 6,430152
1614249262,4221, 9, 0, 0,713266, -0,294434, 0,488342, -0,407532, -3,881651, -3,999939, 3,999939, 44,113832, -123,219654, 5,831998
1614249262,4532, 10, 0, 0,713282, -0,294312, 0,488342, -0,407593, -3,867979, -3,999939, 3,999939, 45,011063, -124,415961, 6,131075
1614249262,4843, 11, 0, 0,71318, -0,294373, 0,488403, -0,407654, -3,881651, -3,999939, 3,999939, 42,46891, -123,219654, 4,486152
1614249262,5154, 12, 0, 0,71318, -0,294373, 0,488403, -0,407654, -3,871885, -3,999939, 3,999939, 45,758755, -124,415961, 5,68246
1614249262,5465, 13, 0, 0,713222, -0,294373, 0,488342, -0,407654, -3,885069, -3,999939, 3,999939, 45,160601, -123,51873, 5,233845
1614249262,5776, 14, 0, 0,713228, -0,294373, 0,488281, -0,407715, -3,877256, -3,999939, 3,999939, 43,36614, -123,219654, 6,280613
1614249262,6087, 15, 0, 0,713228, -0,294373, 0,488281, -0,407715, -3,883604, -3,999939, 3,999939, 45,011063, -122,920577, 6,878767
1614249262,6397, 16, 0, 0,713263, -0,294373, 0,488281, -0,407654, -3,878233, -3,999939, 3,999939, 43,515679, -124,116884, 5,68246
1614249262,6709, 17, 0, 0,713289, -0,294312, 0,488281, -0,407654, -3,868467, -3,999939, 3,999939, 44,113832, -124,266423, 5,233845
1614249262,702, 18, 0, 0,713228, -0,294373, 0,488281, -0,407715, -3,874327, -3,999939, 3,999939, 46,057832, -124,266423, 5,831998
1614249262,7331, 19, 0, 0,713295, -0,294312, 0,48822, -0,407715, -3,881651, -3,999939, 3,999939, 43,515679, -124,415961, 6,430152
1614249262,7642, 20, 0, 0,713295, -0,294312, 0,48822, -0,407715, -3,872862, -3,999939, 3,999939, 44,113832, -123,817807, 4,037537
1614249262,7953, 21, 0, 0,713312, -0,294373, 0,488159, -0,407715, -3,877745, -3,999939, 3,999939, 44,861524, -122,471962, 5,532921
1614249262,8264, 22, 0, 0,713312, -0,294373, 0,488159, -0,407715, -3,878233, -3,999939, 3,999939, 43,515679, -123,369192, 7,177844
1614249262,8575, 23, 0, 0,713347, -0,294373, 0,488159, -0,407654, -3,865537, -3,999939, 3,999939, 46,057832, -123,219654, 5,831998
1614249262,8886, 24, 0, 0,713337, -0,294312, 0,488159, -0,407715, -3,869932, -3,999939, 3,999939, 43,814755, -124,116884, 4,635691
1614249262,9197, 25, 0, 0,713337, -0,294312, 0,488159, -0,407715, -3,874815, -3,999939, 3,999939, 42,319371, -123,369192, 5,383383
1614249262,9507, 26, 0, 0,713295, -0,294312, 0,48822, -0,407715, -3,870909, -3,999939, 3,999939, 45,011063, -122,920577, 4,635691
1614249262,9818, 27, 0, 0,71333, -0,294312, 0,48822, -0,407654, -3,876768, -3,999939, 3,999939, 43,515679, -123,369192, 5,383383
1614249263,0129, 28, 0, 0,713289, -0,294312, 0,488281, -0,407654, -3,868956, -3,999939, 3,999939, 45,011063, -124,715038, 4,934768
1614249263,044, 29, 0, 0,713372, -0,294312, 0,488159, -0,407654, -3,882628, -3,999939, 3,999939, 44,263371, -123,668269, 5,383383
1614249263,0751, 30, 0, 0,713363, -0,294434, 0,488098, -0,407654, -3,876768, -3,999939, 3,999939, 43,067063, -124,415961, 4,934768
1614249263,1062, 31, 0, 0,713396, -0,294373, 0,488037, -0,407715, -3,870909, -3,999939, 3,999939, 43,515679, -122,6215, 3,887999
1614249263,1373, 0, 0, 0,713462, -0,294312, 0,487976, -0,407715, -3,871397, -3,999939, 3,999939, 42,767987, -124,116884, 6,430152
1614249263,1684, 1, 0, 0,713481, -0,29425, 0,488037, -0,407654, -3,884581, -3,999939, 3,999939, 43,814755, -123,369192, 5,383383
1614249263,1995, 2, 0, 0,713481, -0,29425, 0,488037, -0,407654, -3,867979, -3,999939, 3,999939, 43,814755, -122,920577, 4,934768
1614249263,2306, 3, 0, 0,713539, -0,294312, 0,487915, -0,407654, -3,881651, -3,999939, 3,999939, 46,20737, -124,116884, 5,68246
1614249263,2617, 4, 0, 0,713479, -0,294373, 0,487915, -0,407715, -3,867002, -3,999939, 3,999939, 44,711986, -125,163653, 4,635691
1614249263,2927, 5, 0, 0,713539, -0,294312, 0,487915, -0,407654, -3,88751, -3,999939, 3,999939, 44,113832, -123,219654, 7,028305
1614249263,3239, 6, 0, 0,713517, -0,294434, 0,487976, -0,407532, -3,878233, -3,999939, 3,999939, 43,515679, -123,369192, 5,383383
1614249263,355, 7, 0, 0,713517, -0,294434, 0,487976, -0,407532, -3,880186, -3,999939, 3,999939, 43,067063, -123,668269, 6,878767
1614249263,3861, 8, 0, 0,713612, -0,294373, 0,487976, -0,40741, -3,869932, -3,999939, 3,999939, 43,665217, -122,771038, 5,532921
1614249263,4172, 9, 0, 0,713662, -0,29425, 0,487976, -0,40741, -3,87628, -3,999939, 3,999939, 43,814755, -123,668269, 7,925536
1614249263,4483, 10, 0, 0,713662, -0,29425, 0,487976, -0,40741, -3,884092, -3,999939, 3,999939, 43,814755, -124,715038, 6,430152
1614249263,4794, 11, 0, 0,713604, -0,294189, 0,488098, -0,40741, -3,875303, -3,999939, 3,999939, 44,711986, -123,369192, 4,934768
1614249263,5105, 12, 0, 0,713671, -0,294128, 0,488037, -0,40741, -3,879698, -3,999939, 3,999939, 43,515679, -124,415961, 5,68246
1614249263,5416, 13, 0, 0,713629, -0,294128, 0,488098, -0,40741, -3,871397, -3,999939, 3,999939, 44,711986, -124,715038, 4,934768
1614249263,5726, 14, 0, 0,713703, -0,294067, 0,487976, -0,407471, -3,874327, -3,999939, 3,999939, 42,917525, -123,51873, 5,831998
1614249263,6038, 15, 0, 0,713772, -0,294067, 0,487976, -0,407349, -3,884581, -3,999939, 3,999939, 44,113832, -123,817807, 4,486152
1614249263,6349, 16, 0, 0,713804, -0,294006, 0,487915, -0,40741, -3,872374, -3,999939, 3,999939, 45,011063, -122,920577, 5,68246
1614249263,6659, 17, 0, 0,713829, -0,293945, 0,487915, -0,40741, -3,89337, -3,999939, 3,999939, 44,113832, -123,817807, 5,233845
1614249263,697, 18, 0, 0,713906, -0,293945, 0,487854, -0,407349, -3,87335, -3,999939, 3,999939, 43,665217, -123,51873, 4,785229
1614249263,7281, 19, 0, 0,713881, -0,294006, 0,487854, -0,407349, -3,891417, -3,999939, 3,999939, 43,665217, -122,771038, 6,280613
1614249263,7592, 20, 0, 0,713837, -0,294128, 0,487793, -0,40741, -3,880674, -3,999939, 3,999939, 43,814755, -125,163653, 6,878767
1614249263,7903, 21, 0, 0,713869, -0,294067, 0,487732, -0,407471, -3,879698, -3,999939, 3,999939, 42,917525, -123,51873, 4,785229
1614249263,8214, 22, 0, 0,713921, -0,294128, 0,487671, -0,40741, -3,883116, -3,999939, 3,999939, 44,412909, -125,313191, 5,233845
1614249263,8525, 23, 0, 0,713901, -0,294006, 0,487671, -0,407532, -3,874327, -3,999939, 3,999939, 43,36614, -122,471962, 5,831998
1614249263,8835, 24, 0, 0,713844, -0,294128, 0,487732, -0,407471, -3,860166, -3,999939, 3,999939, 44,711986, -123,668269, 3,588922
1614249263,9146, 25, 0, 0,713835, -0,294067, 0,487732, -0,407532, -3,87042, -3,999939, 3,999939, 44,412909, -124,266423, 6,57969
1614249263,9457, 26, 0, 0,713818, -0,294006, 0,487793, -0,407532, -3,882628, -3,999939, 3,999939, 44,263371, -122,920577, 6,430152
1614249263,9768, 27, 0, 0,713758, -0,294067, 0,487793, -0,407593, -3,877256, -3,999939, 3,999939, 43,067063, -124,415961, 7,177844
1614249264,0079, 28, 0, 0,713708, -0,294189, 0,487793, -0,407593, -3,878721, -3,999939, 3,999939, 45,609216, -123,817807, 5,233845
1614249264,0391, 29, 0, 0,713708, -0,294189, 0,487793, -0,407593, -3,879698, -3,999939, 3,999939, 43,515679, -123,369192, 5,68246
1614249264,0702, 30, 0, 0,713715, -0,294189, 0,487732, -0,407654, -3,885069, -3,999939, 3,999939, 42,319371, -123,668269, 6,430152
1614249264,1013, 31, 0, 0,713724, -0,29425, 0,487732, -0,407593, -3,878233, -3,999939, 3,999939, 44,711986, -123,668269, 7,177844
1614249264,1324, 0, 0, 0,713683, -0,29425, 0,487793, -0,407593, -3,887999, -3,999939, 3,999939, 43,665217, -124,266423, 6,280613
1614249264,1635, 1, 0, 0,713683, -0,29425, 0,487793, -0,407593, -3,875792, -3,999939, 3,999939, 43,515679, -124,415961, 5,383383
1614249264,1946, 2, 0, 0,713749, -0,294189, 0,487732, -0,407593, -3,881163, -3,999939, 3,999939, 43,814755, -123,668269, 4,934768
1614249264,2256, 3, 0, 0,713826, -0,294189, 0,487671, -0,407532, -3,874815, -3,999939, 3,999939, 44,263371, -123,668269, 5,383383
1614249264,2567, 4, 0, 0,713836, -0,29425, 0,487671, -0,407471, -3,87335, -3,999939, 3,999939, 45,011063, -125,46273, 5,68246
1614249264,2878, 5, 0, 0,713861, -0,294189, 0,487671, -0,407471, -3,876768, -3,999939, 3,999939, 41,721218, -123,219654, 5,532921
1614249264,3189, 6, 0, 0,713871, -0,29425, 0,487671, -0,40741, -3,888487, -3,999939, 3,999939, 44,711986, -123,369192, 4,934768
1614249264,35, 7, 0, 0,713937, -0,294189, 0,48761, -0,40741, -3,878233, -3,999939, 3,999939, 43,515679, -122,920577, 7,177844
1614249264,381, 8, 0, 0,713903, -0,294189, 0,48761, -0,407471, -3,893858, -3,999939, 3,999939, 44,861524, -123,219654, 6,57969
1614249264,4121, 9, 0, 0,713928, -0,294128, 0,48761, -0,407471, -3,873838, -3,999939, 3,999939, 43,814755, -123,668269, 4,934768
1614249264,4432, 10, 0, 0,714011, -0,294128, 0,487488, -0,407471, -3,880186, -3,999939, 3,999939, 44,263371, -123,668269, 5,68246
1614249264,4743, 11, 0, 0,714011, -0,294128, 0,487488, -0,407471, -3,878233, -3,999939, 3,999939, 42,917525, -123,219654, 5,831998
1614249264,5054, 12, 0, 0,713986, -0,294189, 0,487488, -0,407471, -3,876768, -3,999939, 3,999939, 44,263371, -123,668269, 6,878767
1614249264,5365, 13, 0, 0,713909, -0,294189, 0,487549, -0,407532, -3,862608, -3,999939, 3,999939, 42,46891, -122,023346, 5,831998
1614249264,5676, 14, 0, 0,713875, -0,294189, 0,487549, -0,407593, -3,872374, -3,999939, 3,999939, 43,067063, -124,116884, 6,878767
1614249264,5986, 15, 0, 0,713925, -0,294067, 0,487549, -0,407593, -3,868956, -3,999939, 3,999939, 44,412909, -123,51873, 5,233845
1614249264,6297, 16, 0, 0,713943, -0,294006, 0,48761, -0,407532, -3,872374, -3,999939, 3,999939, 44,711986, -124,116884, 4,934768
1614249264,6608, 17, 0, 0,713899, -0,293945, 0,48761, -0,407654, -3,879698, -3,999939, 3,999939, 44,113832, -123,51873, 6,57969
1614249264,6919, 18, 0, 0,713907, -0,294128, 0,487488, -0,407654, -3,877256, -3,999939, 3,999939, 42,917525, -124,266423, 4,486152
1614249264,7231, 19, 0, 0,713941, -0,294128, 0,487488, -0,407593, -3,87628, -3,999939, 3,999939, 44,412909, -123,51873, 7,028305
1614249264,7542, 20, 0, 0,713876, -0,294067, 0,487671, -0,407532, -3,875303, -3,999939, 3,999939, 43,36614, -125,612268, 5,831998
1614249264,7853, 21, 0, 0,713968, -0,29425, 0,487427, -0,407532, -3,877745, -3,999939, 3,999939, 45,160601, -123,51873, 4,785229
1614249264,8164, 22, 0, 0,714009, -0,29425, 0,487366, -0,407532, -3,879698, -3,999939, 3,999939, 44,711986, -124,415961, 6,878767
1614249264,8475, 23, 0, 0,713969, -0,294128, 0,487549, -0,407471, -3,880674, -3,999939, 3,999939, 44,412909, -123,51873, 6,57969
1614249264,8787, 24, 0, 0,713951, -0,294189, 0,487488, -0,407532, -3,870909, -3,999939, 3,999939, 43,814755, -124,415961, 5,383383
1614249264,91, 25, 0, 0,713914, -0,294312, 0,487366, -0,407654, -3,882139, -3,999939, 3,999939, 44,412909, -124,565499, 5,831998
1614249264,9413, 26, 0, 0,713898, -0,29425, 0,487427, -0,407654, -3,872862, -3,999939, 3,999939, 44,412909, -122,771038, 5,831998
1614249264,9728, 27, 0, 0,713881, -0,294189, 0,487488, -0,407654, -3,877745, -3,999939, 3,999939, 44,263371, -123,668269, 6,131075
1614249265,0039, 28, 0, 0,713864, -0,294434, 0,487366, -0,407654, -3,881651, -3,999939, 3,999939, 44,263371, -123,668269, 4,635691
1614249265,035, 29, 0, 0,713864, -0,294434, 0,487366, -0,407654, -3,879698, -3,999939, 3,999939, 45,011063, -122,920577, 4,934768
1614249265,0661, 30, 0, 0,713831, -0,294312, 0,487488, -0,407654, -3,875303, -3,999939, 3,999939, 43,665217, -123,51873, 5,831998
1614249265,0974, 31, 0, 0,713856, -0,29425, 0,487488, -0,407654, -3,876768, -3,999939, 3,999939, 43,665217, -123,51873, 6,280613
1614249265,1289, 0, 0, 0,713838, -0,294312, 0,487427, -0,407715, -3,871885, -3,999939, 3,999939, 43,814755, -122,6215, 4,635691
1614249265,1602, 1, 0, 0,713866, -0,294312, 0,487488, -0,407593, -3,877745, -3,999939, 3,999939, 44,263371, -122,6215, 6,430152
1614249265,1914, 2, 0, 0,713866, -0,294312, 0,487488, -0,407593, -3,881651, -3,999939, 3,999939, 43,515679, -124,116884, 5,383383
1614249265,2227, 3, 0, 0,713896, -0,294373, 0,487305, -0,407715, -3,874815, -3,999939, 3,999939, 43,515679, -124,116884, 5,68246
1614249265,254, 4, 0, 0,713938, -0,294373, 0,487244, -0,407715, -3,883604, -3,999939, 3,999939, 44,412909, -123,51873, 5,532921
1614249265,2855, 5, 0, 0,713889, -0,294373, 0,487366, -0,407654, -3,879698, -3,999939, 3,999939, 44,412909, -124,266423, 5,831998
1614249265,317, 6, 0, 0,713899, -0,294434, 0,487366, -0,407593, -3,869444, -3,999939, 3,999939, 44,412909, -123,219654, 4,486152
1614249265,3483, 7, 0, 0,713957, -0,294495, 0,487244, -0,407593, -3,877256, -3,999939, 3,999939, 42,917525, -124,266423, 6,280613
1614249265,3794, 8, 0, 0,713925, -0,294556, 0,487305, -0,407532, -3,873838, -3,999939, 3,999939, 44,861524, -124,565499, 5,532921
1614249265,4107, 9, 0, 0,71395, -0,294495, 0,487305, -0,407532, -3,87335, -3,999939, 3,999939, 43,36614, -125,014115, 5,532921
1614249265,4421, 10, 0, 0,713915, -0,294495, 0,487305, -0,407593, -3,87628, -3,999939, 3,999939, 44,263371, -123,369192, 4,635691
1614249265,4732, 11, 0, 0,713906, -0,294434, 0,487305, -0,407654, -3,872374, -3,999939, 3,999939, 43,067063, -124,415961, 4,934768
1614249265,5047, 12, 0, 0,713874, -0,294495, 0,487366, -0,407593, -3,873838, -3,999939, 3,999939, 44,412909, -125,014115, 5,233845
1614249265,5359, 13, 0, 0,713881, -0,294495, 0,487305, -0,407654, -3,87628, -3,999939, 3,999939, 44,412909, -124,266423, 5,532921
1614249265,5674, 14, 0, 0,713837, -0,294617, 0,487244, -0,407715, -3,87628, -3,999939, 3,999939, 44,263371, -123,668269, 6,430152
1614249265,5987, 15, 0, 0,713869, -0,294556, 0,487183, -0,407776, -3,867002, -3,999939, 3,999939, 44,113832, -124,266423, 4,785229
1614249265,63, 16, 0, 0,713903, -0,294373, 0,487244, -0,407776, -3,866026, -3,999939, 3,999939, 43,36614, -123,51873, 5,532921
1614249265,6613, 17, 0, 0,71391, -0,294373, 0,487183, -0,407837, -3,874815, -3,999939, 3,999939, 43,36614, -122,771038, 5,532921
1614249265,6927, 18, 0, 0,71391, -0,294373, 0,487183, -0,407837, -3,865537, -3,999939, 3,999939, 43,515679, -122,920577, 5,383383
1614249265,7238, 19, 0, 0,713916, -0,294373, 0,487122, -0,407898, -3,881163, -3,999939, 3,999939, 44,412909, -125,014115, 5,831998
1614249265,7549, 20, 0, 0,71391, -0,294373, 0,487183, -0,407837, -3,866026, -3,999939, 3,999939, 44,711986, -122,322423, 6,430152
1614249265,786, 21, 0, 0,71391, -0,294373, 0,487183, -0,407837, -3,885069, -3,999939, 3,999939, 42,767987, -122,920577, 4,635691
1614249265,8171, 22, 0, 0,713928, -0,294312, 0,487244, -0,407776, -3,891417, -3,999939, 3,999939, 44,412909, -123,51873, 4,785229
1614249265,8484, 23, 0, 0,713928, -0,294312, 0,487244, -0,407776, -3,881651, -3,999939, 3,999939, 43,36614, -124,565499, 4,785229
1614249265,8799, 24, 0, 0,713921, -0,294312, 0,487305, -0,407715, -3,877256, -3,999939, 3,999939, 44,711986, -124,116884, 4,934768
1614249265,911, 25, 0, 0,713988, -0,29425, 0,487244, -0,407715, -3,867002, -3,999939, 3,999939, 44,113832, -122,771038, 6,57969
1614249265,9421, 26, 0, 0,713972, -0,294189, 0,487305, -0,407715, -3,879698, -3,999939, 3,999939, 44,861524, -123,51873, 5,233845
1614249265,9733, 27, 0, 0,71415, -0,294128, 0,487183, -0,407593, -3,880674, -3,999939, 3,999939, 44,711986, -123,369192, 5,68246
1614249266,0048, 28, 0, 0,714131, -0,294189, 0,487122, -0,407654, -3,867002, -3,999939, 3,999939, 42,917525, -123,51873, 6,57969
1614249266,0363, 29, 0, 0,714124, -0,294189, 0,487183, -0,407593, -3,877745, -3,999939, 3,999939, 43,665217, -124,565499, 5,532921
1614249266,0677, 30, 0, 0,714073, -0,294128, 0,487244, -0,407654, -3,880186, -3,999939, 3,999939, 45,160601, -123,219654, 6,280613
1614249266,0988, 31, 0, 0,71408, -0,294128, 0,487183, -0,407715, -3,880674, -3,999939, 3,999939, 43,515679, -123,369192, 5,68246
1614249266,13, 0, 0, 0,714122, -0,294128, 0,487122, -0,407715, -3,869444, -3,999939, 3,999939, 43,814755, -124,116884, 4,635691
1614249266,1611, 1, 0, 0,714115, -0,294128, 0,487183, -0,407654, -3,885557, -3,999939, 3,999939, 45,011063, -125,163653, 5,68246
1614249266,1924, 2, 0, 0,714073, -0,294128, 0,487244, -0,407654, -3,867491, -3,999939, 3,999939, 45,160601, -124,266423, 4,785229
1614249266,2239, 3, 0, 0,714073, -0,294128, 0,487244, -0,407654, -3,867491, -3,999939, 3,999939, 43,814755, -124,415961, 6,131075
1614249266,2553, 4, 0, 0,714073, -0,294128, 0,487244, -0,407654, -3,881163, -3,999939, 3,999939, 43,814755, -122,6215, 6,430152
1614249266,2866, 5, 0, 0,714073, -0,294128, 0,487244, -0,407654, -3,873838, -3,999939, 3,999939, 45,459678, -122,6215, 6,430152
1614249266,3181, 6, 0, 0,714073, -0,294128, 0,487244, -0,407654, -3,881163, -3,999939, 3,999939, 44,113832, -123,219654, 5,532921
1614249266,3496, 7, 0, 0,714071, -0,29425, 0,487122, -0,407715, -3,879698, -3,999939, 3,999939, 45,011063, -124,116884, 6,131075
1614249266,3811, 8, 0, 0,714088, -0,294312, 0,487061, -0,407715, -3,874327, -3,999939, 3,999939, 43,515679, -123,369192, 7,177844
1614249266,4126, 9, 0, 0,714096, -0,294189, 0,487122, -0,407715, -3,878721, -3,999939, 3,999939, 44,861524, -123,219654, 5,831998
1614249266,4437, 10, 0, 0,714096, -0,294189, 0,487122, -0,407715, -3,874327, -3,999939, 3,999939, 43,665217, -123,51873, 5,831998
1614249266,4748, 11, 0, 0,71402, -0,294189, 0,487183, -0,407776, -3,873838, -3,999939, 3,999939, 43,665217, -123,51873, 6,280613
1614249266,5059, 12, 0, 0,714078, -0,29425, 0,487061, -0,407776, -3,875792, -3,999939, 3,999939, 43,067063, -122,6215, 6,131075
1614249266,537, 13, 0, 0,714062, -0,294189, 0,487122, -0,407776, -3,880674, -3,999939, 3,999939, 43,665217, -123,219654, 5,532921
1614249266,5681, 14, 0, 0,714062, -0,294189, 0,487122, -0,407776, -3,881651, -3,999939, 3,999939, 44,861524, -124,266423, 6,57969
1614249266,5997, 15, 0, 0,714036, -0,29425, 0,487122, -0,407776, -3,884581, -3,999939, 3,999939, 43,814755, -122,920577, 6,131075
1614249266,6309, 16, 0, 0,714036, -0,29425, 0,487122, -0,407776, -3,870909, -3,999939, 3,999939, 43,814755, -123,369192, 5,383383
1614249266,662, 17, 0, 0,714046, -0,294312, 0,487122, -0,407715, -3,880674, -3,999939, 3,999939, 43,665217, -124,266423, 7,028305
1614249266,6932, 18, 0, 0,714014, -0,294373, 0,487183, -0,407654, -3,884581, -3,999939, 3,999939, 43,36614, -124,266423, 5,831998
1614249266,7245, 19, 0, 0,714005, -0,294312, 0,487183, -0,407715, -3,894347, -3,999939, 3,999939, 45,459678, -124,715038, 5,383383
1614249266,7558, 20, 0, 0,713931, -0,294373, 0,487305, -0,407654, -3,870909, -3,999939, 3,999939, 44,113832, -124,266423, 6,280613
1614249266,7872, 21, 0, 0,714005, -0,294312, 0,487183, -0,407715, -3,880186, -3,999939, 3,999939, 44,412909, -123,219654, 7,327382
1614249266,8183, 22, 0, 0,71403, -0,29425, 0,487183, -0,407715, -3,880186, -3,999939, 3,999939, 43,814755, -122,920577, 4,934768
1614249266,8495, 23, 0, 0,71403, -0,29425, 0,487183, -0,407715, -3,871885, -3,999939, 3,999939, 44,263371, -122,920577, 5,383383
1614249266,8806, 24, 0, 0,714005, -0,294312, 0,487183, -0,407715, -3,87628, -3,999939, 3,999939, 43,36614, -123,51873, 5,831998
1614249266,9121, 25, 0, 0,714014, -0,294373, 0,487183, -0,407654, -3,883604, -3,999939, 3,999939, 44,113832, -122,771038, 5,233845
1614249266,9436, 26, 0, 0,714056, -0,294373, 0,487122, -0,407654, -3,881163, -3,999939, 3,999939, 45,011063, -126,210422, 5,68246
1614249266,9749, 27, 0, 0,714014, -0,294373, 0,487183, -0,407654, -3,875303, -3,999939, 3,999939, 44,113832, -123,817807, 4,785229
1614249267,0062, 28, 0, 0,713915, -0,294495, 0,487305, -0,407593, -3,868467, -3,999939, 3,999939, 44,412909, -123,817807, 4,785229
1614249267,0374, 29, 0, 0,713899, -0,294434, 0,487366, -0,407593, -3,886534, -3,999939, 3,999939, 44,861524, -124,266423, 5,831998
1614249267,0687, 30, 0, 0,713874, -0,294495, 0,487366, -0,407593, -3,882139, -3,999939, 3,999939, 43,814755, -123,668269, 5,68246
1614249267,1, 31, 0, 0,713855, -0,294556, 0,487305, -0,407654, -3,89044, -3,999939, 3,999939, 43,814755, -125,46273, 6,131075
1614249267,1315, 0, 0, 0,713855, -0,294556, 0,487305, -0,407654, -3,874327, -3,999939, 3,999939, 46,057832, -123,219654, 4,785229
1614249267,1628, 1, 0, 0,713855, -0,294556, 0,487305, -0,407654, -3,873838, -3,999939, 3,999939, 44,412909, -123,817807, 7,028305
1614249267,1939, 2, 0, 0,71389, -0,294556, 0,487305, -0,407593, -3,885069, -3,999939, 3,999939, 42,917525, -122,771038, 4,785229
1614249267,225, 3, 0, 0,71389, -0,294556, 0,487305, -0,407593, -3,869444, -3,999939, 3,999939, 44,263371, -124,715038, 6,131075
1614249267,2565, 4, 0, 0,714008, -0,294556, 0,487183, -0,407532, -3,874327, -3,999939, 3,999939, 42,46891, -123,219654, 5,831998
1614249267,288, 5, 0, 0,713932, -0,294556, 0,487244, -0,407593, -3,877256, -3,999939, 3,999939, 44,263371, -125,46273, 6,131075
1614249267,3195, 6, 0, 0,713907, -0,294617, 0,487244, -0,407593, -3,878721, -3,999939, 3,999939, 42,767987, -121,873808, 5,68246
1614249267,3506, 7, 0, 0,713907, -0,294617, 0,487244, -0,407593, -3,881163, -3,999939, 3,999939, 44,113832, -123,219654, 6,57969
1614249267,382, 8, 0, 0,713932, -0,294556, 0,487244, -0,407593, -3,867979, -3,999939, 3,999939, 44,113832, -122,771038, 6,57969
1614249267,4134, 9, 0, 0,713907, -0,294617, 0,487244, -0,407593, -3,885557, -3,999939, 3,999939, 43,067063, -123,668269, 6,430152
1614249267,4446, 10, 0, 0,713881, -0,294678, 0,487244, -0,407593, -3,884092, -3,999939, 3,999939, 43,665217, -122,771038, 5,831998
1614249267,4759, 11, 0, 0,713881, -0,294678, 0,487244, -0,407593, -3,873838, -3,999939, 3,999939, 44,113832, -124,266423, 7,028305
1614249267,5074, 12, 0, 0,713923, -0,294678, 0,487183, -0,407593, -3,87628, -3,999939, 3,999939, 44,711986, -124,415961, 4,934768
1614249267,5385, 13, 0, 0,713847, -0,294678, 0,487244, -0,407654, -3,888487, -3,999939, 3,999939, 45,011063, -122,6215, 6,131075
1614249267,5699, 14, 0, 0,713948, -0,294617, 0,487183, -0,407593, -3,892393, -3,999939, 3,999939, 43,814755, -124,116884, 4,934768
1614249267,601, 15, 0, 0,71389, -0,294556, 0,487305, -0,407593, -3,895323, -3,999939, 3,999939, 43,665217, -123,817807, 5,233845
1614249267,6321, 16, 0, 0,713865, -0,294617, 0,487305, -0,407593, -3,883604, -3,999939, 3,999939, 43,665217, -123,51873, 6,280613
1614249267,6637, 17, 0, 0,713933, -0,294739, 0,487183, -0,407532, -3,859678, -3,999939, 3,999939, 44,861524, -124,565499, 4,486152
1614249267,6951, 18, 0, 0,713933, -0,294739, 0,487183, -0,407532, -3,887022, -3,999939, 3,999939, 43,36614, -124,266423, 5,233845
1614249267,7262, 19, 0, 0,713908, -0,2948, 0,487183, -0,407532, -3,870909, -3,999939, 3,999939, 43,36614, -123,817807, 6,280613
1614249267,7573, 20, 0, 0,71394, -0,294922, 0,487061, -0,407532, -3,87335, -3,999939, 3,999939, 43,665217, -124,565499, 6,280613
1614249267,7885, 21, 0, 0,71394, -0,294922, 0,487061, -0,407532, -3,885069, -3,999939, 3,999939, 43,814755, -123,668269, 5,68246
1614249267,8198, 22, 0, 0,713922, -0,294983, 0,487, -0,407593, -3,87921, -3,999939, 3,999939, 43,665217, -123,817807, 4,486152
1614249267,8513, 23, 0, 0,71394, -0,294922, 0,487061, -0,407532, -3,887999, -3,999939, 3,999939, 42,767987, -123,369192, 5,383383
1614249267,8826, 24, 0, 0,713966, -0,294861, 0,487061, -0,407532, -3,854795, -3,999939, 3,999939, 43,665217, -123,817807, 4,037537
1614249267,9137, 25, 0, 0,713889, -0,294861, 0,487122, -0,407593, -3,872862, -3,999939, 3,999939, 45,011063, -124,415961, 4,635691
1614249267,9448, 26, 0, 0,713896, -0,294861, 0,487061, -0,407654, -3,888975, -3,999939, 3,999939, 44,263371, -122,920577, 4,635691
1614249267,9761, 27, 0, 0,713924, -0,294861, 0,487122, -0,407532, -3,89337, -3,999939, 3,999939, 43,515679, -124,415961, 4,934768
1614249268,0076, 28, 0, 0,713934, -0,294922, 0,487122, -0,407471, -3,884092, -3,999939, 3,999939, 46,356909, -123,51873, 6,280613
1614249268,0391, 29, 0, 0,713857, -0,294922, 0,487183, -0,407532, -3,881651, -3,999939, 3,999939, 42,767987, -125,163653, 4,336614
1614249268,0704, 30, 0, 0,713797, -0,294983, 0,487183, -0,407593, -3,878721, -3,999939, 3,999939, 44,711986, -124,415961, 5,383383
1614249268,1015, 31, 0, 0,713885, -0,294922, 0,487244, -0,40741, -3,871397, -3,999939, 3,999939, 44,113832, -122,023346, 5,532921
1614249268,1329, 0, 0, 0,713895, -0,294983, 0,487244, -0,407349, -3,872374, -3,999939, 3,999939, 43,665217, -124,266423, 5,532921
1614249268,1644, 1, 0, 0,713911, -0,295044, 0,487183, -0,407349, -3,865537, -3,999939, 3,999939, 44,861524, -124,565499, 7,028305
1614249268,1959, 2, 0, 0,713809, -0,295105, 0,487244, -0,40741, -3,864561, -3,999939, 3,999939, 43,515679, -124,415961, 6,131075
1614249268,2272, 3, 0, 0,71387, -0,295044, 0,487244, -0,407349, -3,872862, -3,999939, 3,999939, 43,814755, -123,369192, 4,934768
1614249268,2583, 4, 0, 0,713828, -0,295044, 0,487305, -0,407349, -3,887022, -3,999939, 3,999939, 44,711986, -122,920577, 5,383383
1614249268,2895, 5, 0, 0,713863, -0,295044, 0,487305, -0,407288, -3,879698, -3,999939, 3,999939, 45,011063, -122,322423, 5,383383
1614249268,321, 6, 0, 0,713863, -0,295044, 0,487305, -0,407288, -3,880674, -3,999939, 3,999939, 44,861524, -124,266423, 6,57969
1614249268,3526, 7, 0, 0,713839, -0,294983, 0,487427, -0,407227, -3,881651, -3,999939, 3,999939, 43,665217, -123,51873, 5,233845
1614249268,3841, 8, 0, 0,713826, -0,294983, 0,487549, -0,407104, -3,868956, -3,999939, 3,999939, 42,169833, -123,817807, 4,486152
1614249268,4156, 9, 0, 0,713791, -0,294983, 0,487549, -0,407166, -3,886046, -3,999939, 3,999939, 43,665217, -123,817807, 6,280613
1614249268,4471, 10, 0, 0,713899, -0,294922, 0,487427, -0,407166, -3,891417, -3,999939, 3,999939, 43,665217, -123,817807, 7,028305
1614249268,4786, 11, 0, 0,713865, -0,294922, 0,487427, -0,407227, -3,876768, -3,999939, 3,999939, 44,412909, -123,219654, 6,280613
1614249268,5101, 12, 0, 0,713865, -0,294922, 0,487427, -0,407227, -3,872862, -3,999939, 3,999939, 43,515679, -124,116884, 4,635691
1614249268,5416, 13, 0, 0,713865, -0,294922, 0,487427, -0,407227, -3,87628, -3,999939, 3,999939, 45,011063, -122,322423, 5,383383
1614249268,5731, 14, 0, 0,713865, -0,294922, 0,487427, -0,407227, -3,873838, -3,999939, 3,999939, 43,067063, -123,369192, 5,68246
1614249268,6046, 15, 0, 0,713867, -0,294983, 0,487488, -0,407104, -3,878721, -3,999939, 3,999939, 42,46891, -123,219654, 5,831998
1614249268,6361, 16, 0, 0,713867, -0,294983, 0,487488, -0,407104, -3,891417, -3,999939, 3,999939, 43,665217, -124,565499, 5,532921
1614249268,6676, 17, 0, 0,713867, -0,294983, 0,487488, -0,407104, -3,888487, -3,999939, 3,999939, 43,515679, -124,116884, 4,934768
1614249268,6991, 18, 0, 0,713899, -0,294922, 0,487427, -0,407166, -3,874327, -3,999939, 3,999939, 45,011063, -124,415961, 5,383383
1614249268,7305, 19, 0, 0,713881, -0,294983, 0,487366, -0,407227, -3,871885, -3,999939, 3,999939, 45,459678, -124,415961, 6,878767
1614249268,762, 20, 0, 0,713881, -0,294983, 0,487366, -0,407227, -3,883116, -3,999939, 3,999939, 44,861524, -123,51873, 6,280613
1614249268,7935, 21, 0, 0,714009, -0,295044, 0,487244, -0,407104, -3,880674, -3,999939, 3,999939, 44,113832, -123,51873, 6,57969
1614249268,825, 22, 0, 0,713992, -0,294983, 0,487305, -0,407104, -3,885557, -3,999939, 3,999939, 43,814755, -124,116884, 5,68246
1614249268,8565, 23, 0, 0,713917, -0,295166, 0,487305, -0,407104, -3,882139, -3,999939, 3,999939, 43,814755, -125,46273, 5,68246
1614249268,8879, 24, 0, 0,713917, -0,295166, 0,487305, -0,407104, -3,892393, -3,999939, 3,999939, 45,160601, -123,817807, 5,532921
1614249268,9194, 25, 0, 0,713917, -0,295166, 0,487305, -0,407104, -3,87335, -3,999939, 3,999939, 44,113832, -123,51873, 5,532921
1614249268,9509, 26, 0, 0,713935, -0,295105, 0,487366, -0,407043, -3,871885, -3,999939, 3,999939, 45,011063, -123,369192, 6,430152
1614249268,9824, 27, 0, 0,713843, -0,295227, 0,487427, -0,407043, -3,878721, -3,999939, 3,999939, 43,814755, -124,715038, 5,383383
1614249269,0139, 28, 0, 0,713843, -0,295227, 0,487427, -0,407043, -3,876768, -3,999939, 3,999939, 43,515679, -123,369192, 5,68246
1614249269,0455, 29, 0, 0,713853, -0,295288, 0,487427, -0,406982, -3,880674, -3,999939, 3,999939, 43,665217, -123,219654, 7,028305
1614249269,0769, 30, 0, 0,713928, -0,295105, 0,487427, -0,406982, -3,871885, -3,999939, 3,999939, 43,515679, -123,369192, 4,635691
1614249269,1084, 31, 0, 0,713967, -0,295044, 0,487305, -0,407104, -3,867002, -3,999939, 3,999939, 45,459678, -124,415961, 6,131075
1614249269,1399, 0, 0, 0,713967, -0,295044, 0,487305, -0,407104, -3,881163, -3,999939, 3,999939, 43,665217, -123,817807, 6,57969
1614249269,1714, 1, 0, 0,714085, -0,295044, 0,487183, -0,407043, -3,87335, -3,999939, 3,999939, 44,113832, -123,219654, 4,486152
1614249269,2029, 2, 0, 0,714037, -0,295044, 0,487305, -0,406982, -3,867979, -3,999939, 3,999939, 44,711986, -123,369192, 5,68246
1614249269,2344, 3, 0, 0,714021, -0,295166, 0,487305, -0,406921, -3,882628, -3,999939, 3,999939, 43,665217, -123,219654, 4,785229
1614249269,2659, 4, 0, 0,714063, -0,295166, 0,487244, -0,406921, -3,881163, -3,999939, 3,999939, 45,011063, -123,369192, 4,635691
1614249269,2974, 5, 0, 0,714114, -0,295227, 0,487183, -0,40686, -3,867491, -3,999939, 3,999939, 44,263371, -124,116884, 6,131075
1614249269,3289, 6, 0, 0,714139, -0,295166, 0,487183, -0,40686, -3,866026, -3,999939, 3,999939, 44,711986, -122,920577, 6,131075
1614249269,3603, 7, 0, 0,714098, -0,295166, 0,487244, -0,40686, -3,869932, -3,999939, 3,999939, 44,412909, -123,817807, 6,57969
1614249269,3918, 8, 0, 0,714072, -0,295227, 0,487244, -0,40686, -3,889952, -3,999939, 3,999939, 43,515679, -122,6215, 6,878767
1614249269,4232, 9, 0, 0,714123, -0,295288, 0,487183, -0,406799, -3,885069, -3,999939, 3,999939, 44,113832, -123,817807, 6,57969
1614249269,4544, 10, 0, 0,714123, -0,295288, 0,487183, -0,406799, -3,87042, -3,999939, 3,999939, 44,263371, -121,873808, 5,383383
1614249269,4859, 11, 0, 0,714098, -0,295349, 0,487183, -0,406799, -3,878721, -3,999939, 3,999939, 44,263371, -123,369192, 5,68246
1614249269,5174, 12, 0, 0,714063, -0,295349, 0,487183, -0,40686, -3,877745, -3,999939, 3,999939, 44,113832, -125,014115, 6,57969
1614249269,5487, 13, 0, 0,714063, -0,295349, 0,487183, -0,40686, -3,879698, -3,999939, 3,999939, 44,861524, -123,219654, 6,280613
1614249269,58, 14, 0, 0,714031, -0,29541, 0,487244, -0,406799, -3,878233, -3,999939, 3,999939, 43,665217, -123,817807, 6,57969
1614249269,6113, 15, 0, 0,714024, -0,29541, 0,487305, -0,406738, -3,876768, -3,999939, 3,999939, 43,515679, -121,873808, 5,68246
1614249269,6426, 16, 0, 0,713999, -0,295471, 0,487305, -0,406738, -3,878721, -3,999939, 3,999939, 43,36614, -123,51873, 5,532921
1614249269,6742, 17, 0, 0,713983, -0,295593, 0,487305, -0,406677, -3,874327, -3,999939, 3,999939, 44,113832, -123,817807, 5,831998
1614249269,7054, 18, 0, 0,713983, -0,295593, 0,487305, -0,406677, -3,878721, -3,999939, 3,999939, 44,263371, -124,116884, 3,887999
1614249269,7365, 19, 0, 0,713983, -0,295593, 0,487305, -0,406677, -3,885557, -3,999939, 3,999939, 44,412909, -123,817807, 5,831998
1614249269,7676, 20, 0, 0,713993, -0,295654, 0,487305, -0,406616, -3,875303, -3,999939, 3,999939, 44,113832, -124,565499, 5,532921
1614249269,7991, 21, 0, 0,713917, -0,295654, 0,487366, -0,406677, -3,881651, -3,999939, 3,999939, 44,113832, -125,313191, 5,532921
1614249269,8306, 22, 0, 0,713917, -0,295654, 0,487366, -0,406677, -3,875792, -3,999939, 3,999939, 43,515679, -122,920577, 5,68246
1614249269,8621, 23, 0, 0,713951, -0,295654, 0,487366, -0,406616, -3,887999, -3,999939, 3,999939, 43,36614, -124,565499, 4,037537
1614249269,8933, 24, 0, 0,713926, -0,295715, 0,487366, -0,406616, -3,87628, -3,999939, 3,999939, 44,263371, -124,715038, 6,131075
1614249269,9244, 25, 0, 0,714, -0,295654, 0,487244, -0,406677, -3,885557, -3,999939, 3,999939, 45,160601, -124,565499, 5,532921
1614249269,9557, 26, 0, 0,714025, -0,295593, 0,487244, -0,406677, -3,872862, -3,999939, 3,999939, 43,814755, -122,6215, 6,430152
1614249269,9872, 27, 0, 0,714016, -0,295532, 0,487244, -0,406738, -3,880674, -3,999939, 3,999939, 43,515679, -123,369192, 4,934768
1614249270,0187, 28, 0, 0,714016, -0,295532, 0,487244, -0,406738, -3,880186, -3,999939, 3,999939, 43,515679, -122,920577, 6,430152
1614249270,05, 29, 0, 0,714025, -0,295593, 0,487244, -0,406677, -3,875303, -3,999939, 3,999939, 45,011063, -121,873808, 5,68246
1614249270,0811, 30, 0, 0,714043, -0,295532, 0,487305, -0,406616, -3,874815, -3,999939, 3,999939, 44,412909, -124,565499, 6,57969
1614249270,1123, 31, 0, 0,714043, -0,295532, 0,487305, -0,406616, -3,884092, -3,999939, 3,999939, 43,665217, -125,014115, 5,233845
1614249270,1436, 0, 0, 0,714053, -0,295593, 0,487305, -0,406555, -3,876768, -3,999939, 3,999939, 43,515679, -124,116884, 4,934768
1614249270,1751, 1, 0, 0,71405, -0,295532, 0,487244, -0,406677, -3,885069, -3,999939, 3,999939, 44,412909, -123,219654, 7,028305
1614249270,2066, 2, 0, 0,71405, -0,295532, 0,487244, -0,406677, -3,880674, -3,999939, 3,999939, 44,412909, -123,817807, 5,532921
1614249270,2379, 3, 0, 0,714041, -0,295471, 0,487244, -0,406738, -3,87628, -3,999939, 3,999939, 43,665217, -125,612268, 5,831998
1614249270,2692, 4, 0, 0,713999, -0,295471, 0,487305, -0,406738, -3,880186, -3,999939, 3,999939, 44,113832, -123,219654, 6,280613
1614249270,3005, 5, 0, 0,714066, -0,29541, 0,487244, -0,406738, -3,882628, -3,999939, 3,999939, 43,515679, -123,369192, 5,68246
1614249270,332, 6, 0, 0,714052, -0,29541, 0,487366, -0,406616, -3,883604, -3,999939, 3,999939, 43,665217, -122,771038, 6,57969
1614249270,3635, 7, 0, 0,714094, -0,29541, 0,487305, -0,406616, -3,877256, -3,999939, 3,999939, 44,861524, -123,51873, 6,57969
1614249270,3948, 8, 0, 0,714084, -0,295349, 0,487305, -0,406677, -3,875303, -3,999939, 3,999939, 42,319371, -122,6215, 6,430152
1614249270,4259, 9, 0, 0,714027, -0,295471, 0,487366, -0,406616, -3,875303, -3,999939, 3,999939, 45,758755, -125,46273, 6,131075
1614249270,4573, 10, 0, 0,71403, -0,295532, 0,487427, -0,406494, -3,867002, -3,999939, 3,999939, 44,861524, -123,817807, 4,486152
1614249270,4885, 11, 0, 0,71403, -0,295532, 0,487427, -0,406494, -3,855772, -3,999939, 3,999939, 43,515679, -124,116884, 6,878767
1614249270,52, 12, 0, 0,713995, -0,295532, 0,487427, -0,406555, -3,883116, -3,999939, 3,999939, 45,011063, -123,668269, 4,336614
1614249270,5515, 13, 0, 0,713935, -0,295593, 0,487427, -0,406616, -3,870909, -3,999939, 3,999939, 45,011063, -124,116884, 5,68246
1614249270,5828, 14, 0, 0,713925, -0,295532, 0,487427, -0,406677, -3,87335, -3,999939, 3,999939, 44,412909, -123,51873, 4,785229
1614249270,6141, 15, 0, 0,713925, -0,295532, 0,487427, -0,406677, -3,867979, -3,999939, 3,999939, 42,767987, -122,920577, 7,476921
1614249270,6454, 16, 0, 0,7139, -0,295593, 0,487427, -0,406677, -3,87335, -3,999939, 3,999939, 45,011063, -125,163653, 4,934768
1614249270,6769, 17, 0, 0,713942, -0,295593, 0,487366, -0,406677, -3,886534, -3,999939, 3,999939, 44,113832, -122,771038, 6,57969
1614249270,7085, 18, 0, 0,713882, -0,295654, 0,487366, -0,406738, -3,874815, -3,999939, 3,999939, 43,814755, -124,715038, 6,131075
1614249270,74, 19, 0, 0,713891, -0,295715, 0,487366, -0,406677, -3,889464, -3,999939, 3,999939, 44,113832, -122,023346, 6,280613
1614249270,7715, 20, 0, 0,713942, -0,295776, 0,487305, -0,406616, -3,882139, -3,999939, 3,999939, 43,814755, -123,369192, 5,68246
1614249270,803, 21, 0, 0,713892, -0,295898, 0,487305, -0,406616, -3,888487, -3,999939, 3,999939, 44,263371, -123,369192, 7,476921
1614249270,8345, 22, 0, 0,713882, -0,295837, 0,487305, -0,406677, -3,884581, -3,999939, 3,999939, 44,263371, -123,369192, 6,878767
1614249270,866, 23, 0, 0,713966, -0,295837, 0,487183, -0,406677, -3,87921, -3,999939, 3,999939, 43,665217, -123,219654, 6,57969
1614249270,8975, 24, 0, 0,713966, -0,295837, 0,487183, -0,406677, -3,880186, -3,999939, 3,999939, 43,814755, -124,415961, 4,635691
1614249270,9288, 25, 0, 0,713947, -0,295898, 0,487122, -0,406738, -3,880186, -3,999939, 3,999939, 43,515679, -123,369192, 6,131075
1614249270,9601, 26, 0, 0,713938, -0,295837, 0,487122, -0,406799, -3,87628, -3,999939, 3,999939, 45,011063, -123,369192, 6,430152
1614249270,9914, 27, 0, 0,713979, -0,295837, 0,487061, -0,406799, -3,874815, -3,999939, 3,999939, 44,263371, -123,369192, 7,177844
1614249271,0229, 28, 0, 0,713979, -0,295837, 0,487061, -0,406799, -3,87921, -3,999939, 3,999939, 44,861524, -122,471962, 5,233845
1614249271,0544, 29, 0, 0,714014, -0,295837, 0,487061, -0,406738, -3,880186, -3,999939, 3,999939, 44,861524, -123,817807, 5,233845
1614249271,086, 30, 0, 0,713964, -0,295959, 0,487061, -0,406738, -3,877256, -3,999939, 3,999939, 44,412909, -124,266423, 5,233845
1614249271,1175, 31, 0, 0,713897, -0,296021, 0,487122, -0,406738, -3,873838, -3,999939, 3,999939, 42,917525, -122,471962, 4,486152
1614249271,1491, 0, 0, 0,713897, -0,296021, 0,487122, -0,406738, -3,880186, -3,999939, 3,999939, 43,665217, -122,771038, 5,233845
1614249271,1805, 1, 0, 0,71389, -0,296021, 0,487183, -0,406677, -3,871397, -3,999939, 3,999939, 44,263371, -125,911345, 5,383383
1614249271,2121, 2, 0, 0,713929, -0,295959, 0,487061, -0,406799, -3,875792, -3,999939, 3,999939, 44,263371, -123,369192, 5,383383
1614249271,2437, 3, 0, 0,713887, -0,295959, 0,487122, -0,406799, -3,866026, -3,999939, 3,999939, 42,319371, -124,415961, 5,68246
1614249271,2752, 4, 0, 0,713938, -0,296021, 0,487061, -0,406738, -3,871397, -3,999939, 3,999939, 44,113832, -123,817807, 4,486152
1614249271,3067, 5, 0, 0,713938, -0,296021, 0,487061, -0,406738, -3,875792, -3,999939, 3,999939, 43,665217, -123,51873, 6,57969
1614249271,3382, 6, 0, 0,713957, -0,295959, 0,487122, -0,406677, -3,879698, -3,999939, 3,999939, 43,067063, -122,920577, 5,383383
1614249271,3697, 7, 0, 0,713966, -0,295837, 0,487183, -0,406677, -3,89337, -3,999939, 3,999939, 44,412909, -125,014115, 6,280613
1614249271,4012, 8, 0, 0,714037, -0,295898, 0,486938, -0,406799, -3,869932, -3,999939, 3,999939, 45,160601, -124,266423, 5,831998
1614249271,4327, 9, 0, 0,714028, -0,295837, 0,486938, -0,40686, -3,877256, -3,999939, 3,999939, 43,067063, -124,415961, 6,430152
1614249271,4642, 10, 0, 0,713993, -0,295837, 0,486938, -0,406921, -3,874327, -3,999939, 3,999939, 42,767987, -123,668269, 6,131075
1614249271,4958, 11, 0, 0,713917, -0,295837, 0,487, -0,406982, -3,882628, -3,999939, 3,999939, 42,767987, -123,369192, 6,430152
1614249271,5272, 12, 0, 0,713857, -0,295898, 0,487, -0,407043, -3,874327, -3,999939, 3,999939, 44,263371, -123,668269, 5,68246
1614249271,5585, 13, 0, 0,713898, -0,295898, 0,486938, -0,407043, -3,875792, -3,999939, 3,999939, 45,160601, -122,471962, 6,280613
1614249271,5901, 14, 0, 0,713857, -0,295898, 0,487, -0,407043, -3,867002, -3,999939, 3,999939, 42,169833, -123,817807, 5,831998
1614249271,6216, 15, 0, 0,713761, -0,295776, 0,487061, -0,407227, -3,87335, -3,999939, 3,999939, 43,814755, -122,322423, 7,177844
1614249271,6531, 16, 0, 0,713777, -0,295837, 0,487, -0,407227, -3,860655, -3,999939, 3,999939, 43,814755, -123,369192, 4,934768
1614249271,6846, 17, 0, 0,713726, -0,295776, 0,487061, -0,407288, -3,873838, -3,999939, 3,999939, 44,861524, -123,51873, 4,486152
1614249271,7161, 18, 0, 0,713719, -0,295776, 0,487122, -0,407227, -3,877745, -3,999939, 3,999939, 45,011063, -124,715038, 5,68246
1614249271,7474, 19, 0, 0,713719, -0,295776, 0,487122, -0,407227, -3,877745, -3,999939, 3,999939, 44,113832, -123,817807, 8,374151
1614249271,7789, 20, 0, 0,713796, -0,295776, 0,487061, -0,407166, -3,863096, -3,999939, 3,999939, 43,814755, -123,369192, 5,68246
1614249271,8104, 21, 0, 0,713838, -0,295776, 0,487, -0,407166, -3,872862, -3,999939, 3,999939, 43,515679, -124,116884, 6,878767
1614249271,8419, 22, 0, 0,713821, -0,295715, 0,487061, -0,407166, -3,863096, -3,999939, 3,999939, 44,263371, -124,415961, 6,131075
1614249271,8733, 23, 0, 0,713821, -0,295715, 0,487061, -0,407166, -3,869932, -3,999939, 3,999939, 43,665217, -123,817807, 4,037537
1614249271,9046, 24, 0, 0,713835, -0,295715, 0,486938, -0,407288, -3,878233, -3,999939, 3,999939, 44,711986, -123,369192, 4,934768
1614249271,9362, 25, 0, 0,713803, -0,295776, 0,487, -0,407227, -3,87628, -3,999939, 3,999939, 44,263371, -124,715038, 7,476921
1614249271,9677, 26, 0, 0,713803, -0,295776, 0,487, -0,407227, -3,878721, -3,999939, 3,999939, 44,113832, -123,219654, 6,57969
1614249271,9992, 27, 0, 0,713851, -0,295776, 0,486877, -0,407288, -3,878233, -3,999939, 3,999939, 44,412909, -123,51873, 5,831998
1614249272,0307, 28, 0, 0,713835, -0,295715, 0,486938, -0,407288, -3,867979, -3,999939, 3,999939, 42,169833, -123,219654, 5,233845
1614249272,062, 29, 0, 0,713803, -0,295776, 0,487, -0,407227, -3,882139, -3,999939, 3,999939, 42,917525, -123,219654, 5,831998
1614249272,0933, 30, 0, 0,713752, -0,295715, 0,487061, -0,407288, -3,869444, -3,999939, 3,999939, 42,46891, -123,219654, 5,532921
1614249272,1248, 31, 0, 0,713733, -0,295776, 0,487, -0,407349, -3,877745, -3,999939, 3,999939, 42,917525, -122,771038, 6,57969
1614249272,1563, 0, 0, 0,713772, -0,295715, 0,486877, -0,407471, -3,891417, -3,999939, 3,999939, 44,412909, -123,817807, 7,775998
1614249272,1876, 1, 0, 0,713832, -0,295654, 0,486877, -0,40741, -3,877745, -3,999939, 3,999939, 42,767987, -122,6215, 6,131075
1614249272,2189, 2, 0, 0,713765, -0,295715, 0,486938, -0,40741, -3,875792, -3,999939, 3,999939, 43,665217, -123,51873, 6,57969
1614249272,2502, 3, 0, 0,71379, -0,295654, 0,486938, -0,40741, -3,881163, -3,999939, 3,999939, 43,814755, -124,415961, 6,131075
1614249272,2818, 4, 0, 0,713749, -0,295654, 0,487, -0,40741, -3,87628, -3,999939, 3,999939, 44,263371, -123,668269, 6,878767
1614249272,3133, 5, 0, 0,713841, -0,295532, 0,486938, -0,40741, -3,883604, -3,999939, 3,999939, 44,412909, -123,219654, 5,532921
1614249272,3448, 6, 0, 0,713841, -0,295532, 0,486938, -0,40741, -3,875303, -3,999939, 3,999939, 44,412909, -124,266423, 7,028305
1614249272,3761, 7, 0, 0,713844, -0,295593, 0,487, -0,407288, -3,882139, -3,999939, 3,999939, 42,917525, -124,266423, 6,57969
1614249272,4074, 8, 0, 0,713742, -0,295654, 0,487061, -0,407349, -3,874327, -3,999939, 3,999939, 43,515679, -124,715038, 4,934768
1614249272,4389, 9, 0, 0,713742, -0,295654, 0,487061, -0,407349, -3,873838, -3,999939, 3,999939, 44,412909, -125,014115, 5,831998
1614249272,4704, 10, 0, 0,713726, -0,295593, 0,487122, -0,407349, -3,883604, -3,999939, 3,999939, 42,917525, -122,471962, 5,831998
1614249272,502, 11, 0, 0,713684, -0,295593, 0,487183, -0,407349, -3,875792, -3,999939, 3,999939, 45,160601, -124,266423, 6,280613
1614249272,5333, 12, 0, 0,713726, -0,295593, 0,487122, -0,407349, -3,875303, -3,999939, 3,999939, 42,917525, -123,51873, 5,831998
1614249272,5646, 13, 0, 0,713714, -0,295654, 0,487, -0,407471, -3,871397, -3,999939, 3,999939, 44,711986, -122,6215, 6,430152
1614249272,5962, 14, 0, 0,713736, -0,295532, 0,486938, -0,407593, -3,878721, -3,999939, 3,999939, 43,665217, -124,266423, 6,280613
1614249272,6274, 15, 0, 0,713797, -0,295471, 0,486938, -0,407532, -3,876768, -3,999939, 3,999939, 44,113832, -124,266423, 5,233845
1614249272,659, 16, 0, 0,71372, -0,295471, 0,487, -0,407593, -3,870909, -3,999939, 3,999939, 43,814755, -123,369192, 5,68246
1614249272,6903, 17, 0, 0,713748, -0,295471, 0,487061, -0,407471, -3,874327, -3,999939, 3,999939, 43,814755, -123,668269, 5,68246
1614249272,7218, 18, 0, 0,713755, -0,295471, 0,487, -0,407532, -3,89044, -3,999939, 3,999939, 42,917525, -124,266423, 5,532921
1614249272,7531, 19, 0, 0,71379, -0,295471, 0,487, -0,407471, -3,875792, -3,999939, 3,999939, 45,011063, -123,369192, 5,68246
1614249272,7844, 20, 0, 0,71379, -0,295471, 0,487, -0,407471, -3,881651, -3,999939, 3,999939, 43,36614, -123,219654, 5,532921
1614249272,8159, 21, 0, 0,713908, -0,295471, 0,486877, -0,40741, -3,871885, -3,999939, 3,999939, 44,113832, -123,51873, 6,280613
1614249272,8474, 22, 0, 0,713829, -0,29541, 0,486877, -0,407593, -3,884581, -3,999939, 3,999939, 41,721218, -123,219654, 6,280613
1614249272,8787, 23, 0, 0,713829, -0,29541, 0,486877, -0,407593, -3,882139, -3,999939, 3,999939, 43,515679, -123,369192, 5,68246
1614249272,91, 24, 0, 0,713727, -0,295471, 0,486938, -0,407654, -3,876768, -3,999939, 3,999939, 44,412909, -123,219654, 5,831998
1614249272,9413, 25, 0, 0,713785, -0,295532, 0,486816, -0,407654, -3,880186, -3,999939, 3,999939, 44,263371, -124,415961, 6,430152
1614249272,9726, 26, 0, 0,713769, -0,295471, 0,486877, -0,407654, -3,867002, -3,999939, 3,999939, 42,767987, -124,116884, 7,925536
1614249273,0039, 27, 0, 0,71376, -0,295593, 0,486816, -0,407654, -3,87335, -3,999939, 3,999939, 43,515679, -124,715038, 6,430152
1614249273,0353, 28, 0, 0,71376, -0,295593, 0,486816, -0,407654, -3,875792, -3,999939, 3,999939, 43,814755, -122,920577, 5,68246
1614249273,0666, 29, 0, 0,71376, -0,295593, 0,486816, -0,407654, -3,868467, -3,999939, 3,999939, 43,515679, -122,920577, 5,383383
1614249273,0979, 30, 0, 0,713718, -0,295593, 0,486877, -0,407654, -3,867491, -3,999939, 3,999939, 43,665217, -122,471962, 4,486152
1614249273,1293, 31, 0, 0,713743, -0,295532, 0,486877, -0,407654, -3,885069, -3,999939, 3,999939, 43,067063, -124,116884, 6,131075
1614249273,1608, 0, 0, 0,713788, -0,295593, 0,486877, -0,407532, -3,87628, -3,999939, 3,999939, 43,814755, -123,668269, 6,131075
1614249273,1921, 1, 0, 0,713841, -0,295532, 0,486938, -0,40741, -3,871885, -3,999939, 3,999939, 43,067063, -122,920577, 5,68246
1614249273,2234, 2, 0, 0,713773, -0,29541, 0,487061, -0,407471, -3,869932, -3,999939, 3,999939, 43,665217, -123,219654, 4,486152
1614249273,2547, 3, 0, 0,713797, -0,295471, 0,486938, -0,407532, -3,882628, -3,999939, 3,999939, 43,515679, -122,920577, 6,430152
1614249273,286, 4, 0, 0,713797, -0,295471, 0,486938, -0,407532, -3,87335, -3,999939, 3,999939, 42,767987, -121,574731, 5,383383
1614249273,3173, 5, 0, 0,713748, -0,295471, 0,487061, -0,407471, -3,884581, -3,999939, 3,999939, 44,412909, -123,817807, 4,785229
1614249273,3487, 6, 0, 0,713815, -0,29541, 0,487, -0,407471, -3,898253, -3,999939, 3,999939, 43,665217, -125,014115, 4,785229
1614249273,3802, 7, 0, 0,713815, -0,29541, 0,487, -0,407471, -3,863096, -3,999939, 3,999939, 44,412909, -122,771038, 7,028305
1614249273,4115, 8, 0, 0,713859, -0,295288, 0,487061, -0,40741, -3,872862, -3,999939, 3,999939, 43,515679, -123,668269, 6,131075
1614249273,4428, 9, 0, 0,713928, -0,295288, 0,487061, -0,407288, -3,875792, -3,999939, 3,999939, 43,36614, -123,817807, 4,785229
1614249273,4741, 10, 0, 0,713967, -0,295227, 0,486938, -0,40741, -3,891905, -3,999939, 3,999939, 42,46891, -122,771038, 7,028305
1614249273,5056, 11, 0, 0,714044, -0,295227, 0,486877, -0,407349, -3,864073, -3,999939, 3,999939, 45,160601, -123,219654, 6,280613
1614249273,5371, 12, 0, 0,714097, -0,295166, 0,486938, -0,407227, -3,868956, -3,999939, 3,999939, 42,917525, -122,471962, 5,831998
1614249273,5682, 13, 0, 0,714107, -0,295227, 0,486938, -0,407166, -3,877745, -3,999939, 3,999939, 44,113832, -124,266423, 4,785229
1614249273,5995, 14, 0, 0,71403, -0,295227, 0,487, -0,407227, -3,878721, -3,999939, 3,999939, 45,160601, -123,817807, 4,037537
1614249273,6308, 15, 0, 0,71397, -0,295288, 0,487, -0,407288, -3,879698, -3,999939, 3,999939, 44,412909, -123,219654, 6,57969
1614249273,6624, 16, 0, 0,713954, -0,295227, 0,487061, -0,407288, -3,871885, -3,999939, 3,999939, 43,515679, -123,369192, 5,383383
1614249273,6936, 17, 0, 0,71398, -0,295349, 0,487, -0,407227, -3,876768, -3,999939, 3,999939, 45,011063, -123,668269, 5,68246
1614249273,725, 18, 0, 0,71398, -0,295349, 0,487, -0,407227, -3,886046, -3,999939, 3,999939, 44,711986, -124,116884, 5,68246
1614249273,7564, 19, 0, 0,71397, -0,295288, 0,487, -0,407288, -3,875303, -3,999939, 3,999939, 44,263371, -124,116884, 6,430152
1614249273,7877, 20, 0, 0,714012, -0,295288, 0,486938, -0,407288, -3,878233, -3,999939, 3,999939, 43,814755, -124,116884, 5,383383
1614249273,819, 21, 0, 0,713954, -0,29541, 0,487, -0,407227, -3,875303, -3,999939, 3,999939, 43,515679, -123,668269, 7,925536
1614249273,8503, 22, 0, 0,713945, -0,295349, 0,487, -0,407288, -3,867002, -3,999939, 3,999939, 43,814755, -123,668269, 5,68246
1614249273,8816, 23, 0, 0,713945, -0,295349, 0,487, -0,407288, -3,878233, -3,999939, 3,999939, 43,814755, -123,369192, 7,177844
1614249273,9127, 24, 0, 0,713903, -0,295349, 0,487061, -0,407288, -3,878721, -3,999939, 3,999939, 44,263371, -122,6215, 6,131075
1614249273,944, 25, 0, 0,71398, -0,295349, 0,487, -0,407227, -3,883604, -3,999939, 3,999939, 45,459678, -124,116884, 6,878767
1614249273,9753, 26, 0, 0,713963, -0,295288, 0,487061, -0,407227, -3,87335, -3,999939, 3,999939, 43,814755, -123,668269, 6,131075
1614249274,0066, 27, 0, 0,713887, -0,295288, 0,487122, -0,407288, -3,879698, -3,999939, 3,999939, 43,36614, -122,771038, 5,233845
1614249274,0379, 28, 0, 0,713919, -0,295227, 0,487061, -0,407349, -3,882139, -3,999939, 3,999939, 45,160601, -124,266423, 6,57969
1614249274,0692, 29, 0, 0,713954, -0,295227, 0,487061, -0,407288, -3,879698, -3,999939, 3,999939, 44,113832, -124,266423, 5,532921
1614249274,1005, 30, 0, 0,713954, -0,295227, 0,487061, -0,407288, -3,87628, -3,999939, 3,999939, 43,665217, -123,219654, 7,028305
1614249274,1317, 31, 0, 0,713954, -0,295227, 0,487061, -0,407288, -3,87628, -3,999939, 3,999939, 43,814755, -124,415961, 7,476921
1614249274,163, 0, 0, 0,713884, -0,295227, 0,487061, -0,40741, -3,893858, -3,999939, 3,999939, 43,515679, -123,668269, 5,383383
1614249274,1943, 1, 0, 0,713944, -0,295166, 0,487061, -0,407349, -3,884092, -3,999939, 3,999939, 43,814755, -123,668269, 5,383383
1614249274,2256, 2, 0, 0,713935, -0,295471, 0,486633, -0,407654, -3,884092, -3,999939, 3,999939, 45,459678, -125,163653, 5,68246
1614249274,2571, 3, 0, 0,714004, -0,296021, 0,48584, -0,408081, -3,892882, -3,999939, 3,999939, 42,319371, -123,369192, 5,68246
1614249274,2884, 4, 0, 0,713728, -0,296021, 0,48645, -0,407837, -3,888487, -3,999939, 3,999939, 42,917525, -123,817807, 4,486152
1614249274,3197, 5, 0, 0,71383, -0,294922, 0,487427, -0,407288, -3,895323, -3,999939, 3,999939, 45,459678, -124,116884, 6,878767
1614249274,351, 6, 0, 0,713683, -0,295593, 0,486877, -0,407715, -3,867979, -3,999939, 3,999939, 44,263371, -124,715038, 5,68246
1614249274,3824, 7, 0, 0,713861, -0,295532, 0,486755, -0,407593, -3,884092, -3,999939, 3,999939, 44,861524, -123,51873, 5,233845
1614249274,4138, 8, 0, 0,713792, -0,295715, 0,486694, -0,407654, -3,891905, -3,999939, 3,999939, 43,665217, -123,219654, 5,233845
1614249274,4453, 9, 0, 0,713854, -0,295166, 0,487244, -0,407288, -3,847959, -3,999939, 3,999939, 44,412909, -123,51873, 5,532921
1614249274,4765, 10, 0, 0,713747, -0,295288, 0,487122, -0,407532, -3,916808, -3,999939, 3,999939, 44,263371, -123,668269, 5,68246
1614249274,5077, 11, 1, 0,713759, -0,295074, 0,48703, -0,407776, -3,927794, -3,999939, 3,999939, 43,665217, -122,6215, 6,056306
1614249274,539, 12, 0, 0,71377, -0,294861, 0,486938, -0,40802, -3,938781, -3,999939, 3,999939, 43,067063, -121,574731, 6,430152
1614249274,5702, 13, 0, 0,713884, -0,294922, 0,486938, -0,407776, -3,811826, -3,999939, 3,999939, 43,665217, -125,014115, 5,532921
1614249274,6013, 14, 0, 0,714279, -0,297913, 0,482727, -0,409912, -3,960266, -3,999939, 3,999939, 43,515679, -125,911345, 5,383383
1614249274,6324, 15, 0, 0,71405, -0,29895, 0,481384, -0,411133, -3,89044, -3,999939, 3,999939, 45,160601, -123,817807, 5,831998
1614249274,6635, 16, 0, 0,713136, -0,301392, 0,480225, -0,412292, -3,867491, -3,999939, 3,999939, 43,814755, -123,668269, 5,383383
1614249274,6946, 17, 0, 0,71344, -0,30011, 0,481567, -0,411133, -3,950011, -3,999939, 3,999939, 44,711986, -124,415961, 5,68246
1614249274,7257, 18, 0, 0,713163, -0,297119, 0,48584, -0,408752, -3,863584, -3,999939, 3,999939, 43,067063, -125,163653, 4,635691
1614249274,7568, 19, 0, 0,711923, -0,295654, 0,491333, -0,405396, -3,925597, -3,999939, 3,999939, 43,067063, -122,920577, 5,68246
1614249274,7879, 20, 0, 0,711035, -0,291931, 0,49707, -0,402649, -3,776181, -3,999939, 3,999939, 43,515679, -123,668269, 5,68246
1614249274,819, 21, 0, 0,711047, -0,292114, 0,498718, -0,400452, -3,986633, -3,999939, 3,999939, 42,767987, -122,6215, 5,68246
1614249274,8501, 22, 0, 0,712304, -0,291199, 0,499512, -0,397888, -3,842588, -3,999939, 3,999939, 44,861524, -122,023346, 5,233845
1614249274,8811, 23, 0, 0,713323, -0,291016, 0,499329, -0,396423, -3,961242, -3,999939, 3,999939, 43,665217, -123,219654, 6,57969
1614249274,9122, 24, 0, 0,713605, -0,287903, 0,501404, -0,395569, -3,896788, -3,999939, 3,999939, 44,263371, -123,369192, 6,131075
1614249274,9433, 25, 0, 0,716089, -0,284485, 0,502258, -0,392456, -3,87628, -3,999939, 3,999939, 42,767987, -121,574731, 5,68246
1614249274,9744, 26, 0, 0,721418, -0,290771, 0,493713, -0,388916, -3,699031, -3,999939, 3,999939, 42,169833, -121,724269, 8,075074
1614249275,0055, 27, 0, 0,729073, -0,299255, 0,47821, -0,387573, -3,955383, -3,999939, 3,999939, 42,319371, -122,920577, 7,925536
1614249275,0367, 28, 0, 0,730414, -0,306702, 0,465332, -0,394836, -3,691218, -3,999939, 3,999939, 40,973526, -125,313191, 11,36492
1614249275,0678, 29, 0, 0,739037, -0,319946, 0,450806, -0,38501, -3,999939, -3,999939, 3,999939, 42,169833, -122,771038, 12,411688
1614249275,0989, 30, 0, 0,745279, -0,329407, 0,439148, -0,378418, -3,739071, -3,999939, 3,999939, 43,665217, -123,817807, 14,953841
1614249275,13, 31, 0, 0,747758, -0,338684, 0,428589, -0,377441, -3,950011, -3,999939, 3,999939, 40,973526, -126,35996, 15,252918
1614249275,1611, 0, 0, 0,749842, -0,341919, 0,423584, -0,376038, -3,867002, -3,999939, 3,999939, 40,823987, -124,415961, 15,851072
1614249275,1921, 1, 0, 0,753262, -0,347168, 0,41217, -0,377075, -3,791318, -3,999939, 3,999939, 40,973526, -127,107652, 17,495995
1614249275,2232, 2, 0, 0,756865, -0,353821, 0,397583, -0,379333, -3,857725, -3,999939, 3,999939, 40,225834, -126,060883, 17,795071
1614249275,2543, 3, 0, 0,760902, -0,360596, 0,383301, -0,379578, -3,76788, -3,999939, 3,999939, 40,225834, -127,556268, 19,589532
1614249275,2854, 4, 0, 0,76351, -0,370422, 0,368896, -0,37915, -3,97052, -3,999939, 3,999939, 41,422141, -127,107652, 20,038148
1614249275,3165, 5, 0, 0,763934, -0,377808, 0,355225, -0,384033, -3,939757, -3,999939, 3,999939, 39,62768, -128,004883, 19,439994
1614249275,3476, 6, 0, 0,764612, -0,3797, 0,344604, -0,390442, -3,999939, -3,999939, 3,999939, 42,020294, -129,500267, 20,187686
1614249275,3787, 7, 0, 0,761288, -0,377075, 0,341064, -0,402405, -3,999939, -3,999939, 3,999939, 39,179065, -128,453498, 21,982147
1614249275,4098, 8, 0, 0,75631, -0,372131, 0,345947, -0,412109, -3,999939, -3,999939, 3,999939, 41,422141, -130,397498, 19,589532
1614249275,4409, 9, 0, 0,753209, -0,368347, 0,351746, -0,41626, -3,743954, -3,999939, 3,999939, 40,973526, -129,350729, 19,589532
1614249275,472, 10, 0, 0,74466, -0,360535, 0,36499, -0,426941, -3,680476, -3,999939, 3,999939, 42,020294, -130,247959, 18,094148
1614249275,5031, 11, 0, 0,733843, -0,353699, 0,377136, -0,440613, -3,680476, -3,999939, 3,999939, 42,46891, -130,397498, 15,701534
1614249275,5341, 12, 0, 0,722043, -0,348083, 0,382446, -0,459595, -3,827939, -3,999939, 3,999939, 43,067063, -130,547036, 15,10338
1614249275,5652, 13, 0, 0,70833, -0,340393, 0,385498, -0,483521, -3,810361, -3,999939, 3,999939, 44,113832, -131,444266, 11,663996
1614249275,5963, 14, 0, 0,696443, -0,329895, 0,392578, -0,502014, -3,773251, -3,999939, 3,999939, 45,459678, -133,089189, 10,467689
1614249275,6274, 15, 0, 0,683511, -0,325623, 0,401062, -0,515686, -3,955871, -3,999939, 3,999939, 46,057832, -132,939651, 7,327382
1614249275,6585, 16, 0, 0,660483, -0,33197, 0,407898, -0,535889, -3,970031, -3,999939, 3,999939, 47,104601, -134,285496, 8,075074
1614249275,6897, 17, 0, 0,651031, -0,328125, 0,41571, -0,543762, -3,899229, -3,999939, 3,999939, 46,356909, -133,537804, 4,486152
1614249275,7208, 18, 0, 0,63337, -0,316589, 0,42926, -0,560669, -3,906554, -3,999939, 3,999939, 47,403677, -135,182727, 0
1614249275,7519, 19, 0, 0,616955, -0,301147, 0,443115, -0,576477, -3,91046, -3,999939, 3,999939, 48,899062, -136,977188, -3,887999
1614249275,783, 20, 0, 0,598594, -0,282959, 0,460876, -0,590942, -3,80206, -3,999939, 3,999939, 47,104601, -136,827649, -7,327382
1614249275,8141, 21, 0, 0,581148, -0,269653, 0,474915, -0,603333, -3,530571, -3,999939, 3,999939, 48,749523, -138,62211, -10,916304
1614249275,8452, 22, 0, 0,562133, -0,259583, 0,486267, -0,616577, -3,640925, -3,999939, 3,999939, 47,852293, -137,126726, -7,327382
1614249275,8763, 23, 0, 0,551152, -0,247559, 0,498352, -0,621765, -3,563287, -3,999939, 3,999939, 48,151369, -138,771649, -13,757534
1614249275,9074, 24, 0, 0,540974, -0,244751, 0,505188, -0,626282, -3,390921, -3,999939, 3,999939, 46,20737, -137,72488, -13,308919
1614249275,9385, 25, 0, 0,536476, -0,244751, 0,508911, -0,627136, -3,999939, -3,999939, 3,999939, 49,347677, -138,472572, -14,355688
1614249275,9695, 26, 0, 0,534261, -0,245178, 0,515198, -0,623718, 3,999939, -3,999939, 3,999939, 47,403677, -138,472572, -15,851072
1614249276,0006, 27, 0, 0,53488, -0,249329, 0,517273, -0,619812, 3,999939, 3,999939, 3,999939, 47,403677, -138,173495, -12,26215
1614249276,0317, 28, 0, 0,538263, -0,25592, 0,516663, -0,614685, -3,999939, 3,999939, 3,999939, 48,151369, -138,771649, -11,514458
1614249276,0628, 29, 0, 0,544859, -0,259155, 0,518372, -0,606018, -3,999939, 3,999939, 3,999939, 47,403677, -137,72488, -13,009842
1614249276,0939, 30, 0, 0,554125, -0,265442, 0,516479, -0,596436, -3,999939, 3,999939, 3,999939, 48,450446, -137,72488, -11,514458
1614249276,125, 31, 0, 0,564624, -0,277893, 0,509277, -0,587036, -3,999939, 3,999939, 3,999939, 47,852293, -136,528573, -9,121843
1614249276,1561, 0, 0, 0,578102, -0,298462, 0,498108, -0,573242, -3,999939, 3,999939, 3,999939, 46,955062, -136,678111, -7,177844
1614249276,1872, 1, 0, 0,594251, -0,327515, 0,480103, -0,555969, -3,999939, 3,999939, 3,999939, 48,300908, -136,528573, -3,439384
1614249276,2183, 2, 0, 0,602368, -0,344238, 0,466736, -0,548462, -3,999939, 3,999939, 3,999939, 48,450446, -136,678111, 1,046769
1614249276,2493, 3, 0, 0,615387, -0,370911, 0,437744, -0,540466, -3,999939, 3,999939, 3,999939, 49,497215, -138,323033, 5,831998
1614249276,2804, 4, 0, 0,633354, -0,382935, 0,409302, -0,533569, -3,999939, 3,999939, 3,999939, 46,955062, -139,220264, 7,177844
1614249276,3115, 5, 0, 0,655635, -0,391174, 0,379517, -0,522583, -1,443748, 3,999939, 3,999939, 47,104601, -139,369802, 10,617227
1614249276,3426, 6, 0, 0,669156, -0,401855, 0,363403, -0,508606, 3,998962, 3,999939, 3,999939, 45,459678, -137,425803, 12,561227
1614249276,3738, 7, 0, 0,673856, -0,413086, 0,353516, -0,500305, 3,999939, 3,999939, 3,999939, 44,412909, -137,874418, 14,953841
1614249276,4049, 8, 0, 0,67352, -0,425354, 0,336243, -0,50238, 3,999939, 3,999939, 3,999939, 46,057832, -139,369802, 17,196918
1614249276,4359, 9, 0, 0,67019, -0,437561, 0,31958, -0,507202, 3,999939, 3,999939, 3,999939, 46,057832, -140,865187, 16,449226
1614249276,467, 10, 0, 0,666979, -0,440247, 0,313293, -0,513, 3,999939, 3,999939, 3,999939, 44,412909, -141,46334, 17,495995
1614249276,4981, 11, 0, 0,659447, -0,440552, 0,307922, -0,525574, 3,999939, 3,999939, 3,999939, 45,758755, -142,809186, 19,140917
1614249276,5292, 12, 0, 0,652402, -0,442139, 0,308594, -0,532593, 3,999939, 3,999939, 3,999939, 45,011063, -144,603647, 15,551995
1614249276,5603, 13, 0, 0,643111, -0,442078, 0,316528, -0,539246, 3,999939, 3,999939, 3,999939, 45,160601, -144,454108, 14,206149
1614249276,5914, 14, 0, 0,632985, -0,438965, 0,330505, -0,545349, 3,999939, 3,999939, 3,999939, 45,160601, -145,052262, 15,252918
1614249276,6225, 15, 0, 0,624849, -0,435486, 0,346375, -0,547668, 3,999939, 3,999939, 3,999939, 46,356909, -143,257801, 12,112612
1614249276,6536, 16, 0, 0,617325, -0,4245, 0,365051, -0,552673, 3,999939, 3,999939, 3,999939, 45,160601, -144,753185, 10,318151
1614249276,6847, 17, 0, 0,614908, -0,410034, 0,383972, -0,553467, 3,999939, 3,999939, 3,999939, 45,609216, -142,958724, 8,822766
1614249276,7158, 18, 0, 0,613978, -0,398865, 0,399292, -0,551819, 3,999939, 3,999939, 3,999939, 47,104601, -141,911955, 6,57969
1614249276,7469, 19, 0, 0,611628, -0,393982, 0,40625, -0,552856, 3,999939, 3,999939, 3,999939, 47,553216, -141,46334, 5,532921
1614249276,778, 20, 0, 0,606018, -0,383423, 0,423401, -0,553589, 3,999939, 3,999939, 3,999939, 47,104601, -141,911955, 5,532921
1614249276,8091, 21, 0, 0,599788, -0,374084, 0,442505, -0,551819, 3,999939, 3,999939, 3,999939, 48,151369, -141,014725, 4,336614
1614249276,8401, 22, 0, 0,594913, -0,365417, 0,458618, -0,549744, 3,999939, 3,999939, 3,999939, 48,899062, -141,014725, 1,794461
1614249276,8712, 23, 0, 0,590205, -0,358276, 0,467896, -0,551697, 3,999939, 3,999939, 3,999939, 47,403677, -139,967956, 0,299077
1614249276,9023, 24, 0, 0,587842, -0,351685, 0,473389, -0,553772, 3,999939, 3,999939, 3,999939, 47,553216, -140,117494, -0,149538
1614249276,9334, 25, 0, 0,58814, -0,346802, 0,4776, -0,552917, 3,999939, 3,999939, 3,999939, 48,151369, -138,771649, -0,598154
1614249276,9645, 26, 0, 0,58822, -0,340576, 0,480347, -0,554321, 3,999939, 3,999939, 3,999939, 48,899062, -139,220264, -1,794461
1614249276,9956, 27, 0, 0,590441, -0,333862, 0,481628, -0,554932, 3,999939, 3,999939, 3,999939, 47,852293, -137,126726, -0,89723
1614249277,0267, 28, 0, 0,592477, -0,331482, 0,482178, -0,553711, 3,999939, 3,999939, 3,999939, 48,300908, -136,827649, -1,495384
1614249277,0579, 29, 0, 0,59579, -0,329102, 0,484192, -0,549805, 3,999939, 3,999939, 3,999939, 46,805524, -137,126726, -3,439384
1614249277,089, 30, 0, 0,597626, -0,328674, 0,485535, -0,546875, 3,999939, 3,999939, 3,999939, 48,899062, -136,678111, 0
1614249277,1201, 31, 0, 0,602096, -0,330322, 0,484436, -0,541931, 3,999939, 3,999939, 3,999939, 47,702754, -134,88365, 0,598154
1614249277,1512, 0, 0, 0,609254, -0,332764, 0,479431, -0,536865, 3,999939, 3,999939, 3,999939, 47,702754, -135,631342, 0
1614249277,1823, 1, 0, 0,611754, -0,334412, 0,475769, -0,536255, 3,999939, 3,999939, 3,999939, 47,852293, -136,079957, -0,149538
1614249277,2133, 2, 0, 0,563464, -0,384338, 0,537292, -0,496094, 3,999939, 3,999939, 3,999939, 46,057832, -135,033188, 0,149538
1614249277,2444, 3, 0, 0,565103, -0,375305, 0,543274, -0,494629, 3,999939, 3,999939, 3,999939, 48,300908, -132,491035, -3,73846
1614249277,2755, 4, 0, 0,564226, -0,370422, 0,546692, -0,495544, 3,999939, 3,999939, 3,999939, 48,899062, -133,388266, -2,84123
1614249277,3066, 5, 0, 0,562547, -0,360107, 0,553772, -0,497192, 3,999939, 3,999939, 3,999939, 48,450446, -133,089189, -3,140307
1614249277,3377, 6, 0, 0,563468, -0,349365, 0,559631, -0,497253, 3,999939, 3,999939, 3,999939, 48,151369, -131,294728, -3,887999
1614249277,3688, 7, 0, 0,563872, -0,341431, 0,565552, -0,495605, 3,999939, 3,999939, 3,999939, 47,702754, -129,799344, -3,588922
1614249277,3999, 8, 0, 0,565204, -0,335327, 0,571045, -0,491943, 3,999939, 3,999939, 3,999939, 47,403677, -129,799344, -4,336614
1614249277,431, 9, 0, 0,568347, -0,333801, 0,574707, -0,485046, 3,999939, 3,999939, 3,999939, 47,104601, -132,191958, -4,785229
1614249277,462, 10, 0, 0,570497, -0,336914, 0,576233, -0,478516, 3,999939, 3,999939, 3,999939, 45,758755, -130,247959, -3,887999
1614249277,4931, 11, 0, 0,572614, -0,339355, 0,576233, -0,474243, 3,999939, 3,999939, 3,999939, 48,151369, -129,051652, -2,093538
1614249277,5242, 12, 0, 0,574408, -0,339111, 0,575745, -0,472839, 3,999939, 3,999939, 3,999939, 47,403677, -129,051652, -2,093538
1614249277,5553, 13, 0, 0,576825, -0,337769, 0,574768, -0,472046, 3,999939, 3,999939, 3,999939, 47,104601, -128,902113, -4,486152
1614249277,5864, 14, 0, 0,576742, -0,336121, 0,575867, -0,471985, 3,999939, 3,999939, 3,999939, 47,852293, -129,948882, -2,990768
1614249277,6175, 15, 0, 0,57854, -0,333862, 0,577271, -0,469666, 3,999939, 3,999939, 3,999939, 47,852293, -128,902113, -4,785229
1614249277,6486, 16, 0, 0,58143, -0,334351, 0,576904, -0,466187, 3,999939, 3,999939, 3,999939, 46,356909, -129,350729, -2,691691
1614249277,6797, 17, 0, 0,584489, -0,337646, 0,575623, -0,461548, 3,999939, 3,999939, 3,999939, 47,553216, -127,855344, -2,243076
1614249277,7108, 18, 0, 0,589326, -0,338806, 0,575256, -0,454956, 3,999939, 3,999939, 3,999939, 46,356909, -128,603037, -1,943999
1614249277,742, 19, 0, 0,595496, -0,336609, 0,577026, -0,446228, 3,999939, 3,999939, 3,999939, 47,403677, -127,257191, -0,598154
1614249277,773, 20, 0, 0,600381, -0,334839, 0,578979, -0,438416, 3,999939, 3,999939, 3,999939, 45,609216, -126,808576, -0,89723
1614249277,8041, 21, 0, 0,60241, -0,334412, 0,579651, -0,435059, 3,999939, 3,999939, 3,999939, 46,506447, -125,911345, -0,299077
1614249277,8353, 22, 0, 0,605289, -0,333008, 0,581238, -0,429993, 3,999939, 3,999939, 3,999939, 46,057832, -124,565499, -0,448615
1614249277,8664, 23, 0, 0,610744, -0,334778, 0,579529, -0,423157, 3,999939, 3,999939, 3,999939, 44,412909, -125,313191, 1,196307
1614249277,8974, 24, 0, 0,617933, -0,337952, 0,573669, -0,418152, 3,999939, 3,999939, 3,999939, 45,609216, -127,556268, 1,943999
1614249277,9285, 25, 0, 0,62353, -0,342285, 0,56543, -0,417542, 3,999939, 3,999939, 3,999939, 44,861524, -124,565499, 1,196307
1614249277,9596, 26, 0, 0,62934, -0,347351, 0,553284, -0,420898, 3,999939, 3,999939, 3,999939, 44,113832, -125,612268, 3,73846
1614249277,9907, 27, 0, 0,645394, -0,354187, 0,541138, -0,406433, 3,999939, 3,999939, 3,999939, 46,057832, -125,612268, 3,73846
1614249278,0218, 28, 0, 0,643842, -0,352051, 0,54364, -0,40741, 3,999939, 3,999939, 3,999939, 45,011063, -125,163653, 4,336614
1614249278,0528, 29, 0, 0,636621, -0,350098, 0,547852, -0,414734, 3,999939, 3,999939, 3,999939, 44,412909, -126,060883, 3,73846
1614249278,0839, 30, 0, 0,635267, -0,349182, 0,54834, -0,416931, 3,999939, 3,999939, 3,999939, 45,011063, -126,210422, 3,887999
1614249278,115, 31, 0, 0,637851, -0,348022, 0,547974, -0,414429, 3,999939, 3,999939, 3,999939, 44,263371, -125,163653, 3,140307
1614249278,1461, 0, 0, 0,640661, -0,346863, 0,548828, -0,409912, 3,999939, 3,999939, 3,999939, 43,814755, -127,257191, 4,635691
1614249278,1772, 1, 0, 0,641435, -0,344299, 0,552429, -0,406006, 3,999939, 3,999939, 3,999939, 45,758755, -125,911345, 3,887999
1614249278,2083, 2, 0, 0,639773, -0,33844, 0,557861, -0,406128, 3,999939, 3,999939, 3,999939, 44,861524, -125,313191, 5,233845
1614249278,2396, 3, 0, 0,636669, -0,330444, 0,565002, -0,407715, 3,999939, 3,999939, 3,999939, 44,263371, -124,715038, 1,794461
1614249278,2707, 4, 0, 0,579035, -0,356873, 0,641602, -0,354553, 3,999939, 3,999939, 3,999939, 45,758755, -123,668269, 2,392615
1614249278,3018, 5, 0, 0,579111, -0,357178, 0,640991, -0,355225, 3,999939, 3,999939, 3,999939, 44,412909, -125,612268, 2,691691
1614249278,3329, 6, 0, 0,579127, -0,357178, 0,640808, -0,35553, 3,999939, 3,999939, 3,999939, 44,711986, -124,415961, 2,84123
1614249278,364, 7, 0, 0,578975, -0,357666, 0,640503, -0,355835, 3,999939, 3,999939, 3,999939, 45,609216, -125,014115, 1,943999
1614249278,3951, 8, 0, 0,579024, -0,358582, 0,639709, -0,356262, 3,999939, 3,999939, 3,999939, 44,711986, -123,668269, 1,794461
1614249278,4264, 9, 0, 0,578644, -0,359192, 0,639404, -0,356812, 3,999939, 3,999939, 3,999939, 45,011063, -124,415961, 1,794461
1614249278,4575, 10, 0, 0,578789, -0,358826, 0,639648, -0,356506, 3,999939, 3,999939, 3,999939, 46,506447, -126,659037, 1,046769
1614249278,4886, 11, 0, 0,578926, -0,358521, 0,639832, -0,356262, 3,999939, 3,999939, 3,999939, 44,113832, -124,565499, 0,89723
1614249278,5197, 12, 0, 0,578881, -0,358704, 0,639771, -0,356262, 3,999939, 3,999939, 3,999939, 46,356909, -125,313191, 0,448615
1614249278,5508, 13, 0, 0,578942, -0,358459, 0,639954, -0,356079, 3,999939, 3,999939, 3,999939, 46,805524, -125,014115, 1,196307
1614249278,5821, 14, 0, 0,578958, -0,358337, 0,640076, -0,355957, 3,999939, 3,999939, 3,999939, 44,861524, -123,817807, 1,495384
1614249278,6134, 15, 0, 0,578958, -0,358337, 0,640076, -0,355957, 3,999939, 3,999939, 3,999939, 45,160601, -125,014115, 2,691691
1614249278,6447, 16, 0, 0,578859, -0,358582, 0,639893, -0,356201, 3,999939, 3,999939, 3,999939, 44,861524, -123,817807, 1,943999
1614249278,676, 17, 0, 0,578889, -0,358582, 0,639832, -0,356262, 3,999939, 3,999939, 3,999939, 44,711986, -123,369192, 0,299077
1614249278,7072, 18, 0, 0,578783, -0,358643, 0,639893, -0,356262, 3,999939, 3,999939, 3,999939, 44,263371, -124,715038, 2,392615
1614249278,7384, 19, 0, 0,578775, -0,358704, 0,639832, -0,356323, 3,999939, 3,999939, 3,999939, 46,356909, -125,612268, 2,990768
1614249278,7695, 20, 0, 0,578783, -0,358643, 0,639893, -0,356262, 3,999939, 3,999939, 3,999939, 45,160601, -123,51873, 1,495384
1614249278,8006, 21, 0, 0,578732, -0,358521, 0,640076, -0,35614, 3,999939, 3,999939, 3,999939, 44,113832, -125,313191, 1,495384
1614249278,8318, 22, 0, 0,578777, -0,358459, 0,640137, -0,356018, 3,999939, 3,999939, 3,999939, 45,011063, -124,116884, 1,794461
1614249278,8631, 23, 0, 0,57874, -0,358398, 0,640137, -0,35614, 3,999939, 3,999939, 3,999939, 45,011063, -125,163653, 2,093538
1614249278,8942, 24, 0, 0,578732, -0,358459, 0,640076, -0,356201, 3,999939, 3,999939, 3,999939, 44,861524, -124,266423, 1,495384
1614249278,9253, 25, 0, 0,578761, -0,358582, 0,640015, -0,35614, 3,999939, 3,999939, 3,999939, 44,263371, -123,668269, 1,794461
1614249278,9566, 26, 0, 0,578594, -0,358887, 0,639893, -0,356323, 3,999939, 3,999939, 3,999939, 46,506447, -125,46273, 1,046769
1614249278,9879, 27, 0, 0,578737, -0,358826, 0,639832, -0,356262, 3,999939, 3,999939, 3,999939, 44,711986, -125,46273, 1,794461
1614249279,0194, 28, 0, 0,578624, -0,358887, 0,639832, -0,356384, 3,999939, 3,999939, 3,999939, 45,160601, -125,014115, 0,89723
1614249279,0507, 29, 0, 0,5787, -0,358826, 0,639832, -0,356323, 3,999939, 3,999939, 3,999939, 45,011063, -124,116884, 0,598154
1614249279,0818, 30, 0, 0,578805, -0,358826, 0,639771, -0,356262, 3,999939, 3,999939, 3,999939, 46,805524, -125,612268, 1,196307
1614249279,113, 31, 0, 0,57885, -0,358765, 0,639832, -0,35614, 3,999939, 3,999939, 3,999939, 45,011063, -125,46273, 2,84123
1614249279,1442, 0, 0, 0,578993, -0,358704, 0,639771, -0,356079, 3,999939, 3,999939, 3,999939, 44,861524, -124,266423, 1,943999
1614249279,1755, 1, 0, 0,57888, -0,358826, 0,639771, -0,35614, 3,999939, 3,999939, 3,999939, 46,955062, -125,46273, 2,84123
1614249279,2068, 2, 0, 0,578835, -0,358826, 0,639709, -0,356323, 3,999939, 3,999939, 3,999939, 45,459678, -122,6215, 2,392615
1614249279,2379, 3, 0, 0,578864, -0,358948, 0,639648, -0,356262, 3,999939, 3,999939, 3,999939, 45,160601, -125,313191, 1,495384
1614249279,269, 4, 0, 0,578758, -0,35907, 0,639709, -0,356201, 3,999939, 3,999939, 3,999939, 45,011063, -124,715038, 2,392615
1614249279,3003, 5, 0, 0,578834, -0,35907, 0,639709, -0,356079, 3,999939, 3,999939, 3,999939, 44,861524, -125,612268, 1,495384
1614249279,3316, 6, 0, 0,578871, -0,359009, 0,639709, -0,356079, 3,999939, 3,999939, 3,999939, 44,412909, -125,014115, 1,943999
1614249279,3629, 7, 0, 0,578766, -0,35907, 0,639771, -0,356079, 3,999939, 3,999939, 3,999939, 45,609216, -125,313191, 0,89723
1614249279,3942, 8, 0, 0,578804, -0,359009, 0,639771, -0,356079, 3,999939, 3,999939, 3,999939, 46,955062, -125,46273, 2,84123
1614249279,4255, 9, 0, 0,578841, -0,35907, 0,639771, -0,355957, 3,999939, 3,999939, 3,999939, 46,20737, -124,116884, 1,345846
1614249279,4567, 10, 0, 0,578833, -0,359192, 0,639709, -0,355957, 3,999939, 3,999939, 3,999939, 46,356909, -124,565499, 2,691691
1614249279,488, 11, 0, 0,578825, -0,359253, 0,639648, -0,356018, 3,999939, 3,999939, 3,999939, 46,506447, -123,668269, 2,093538
1614249279,5192, 12, 0, 0,578712, -0,359314, 0,639648, -0,35614, 3,999939, 3,999939, 3,999939, 44,861524, -125,014115, 1,495384
1614249279,5504, 13, 0, 0,578712, -0,359314, 0,639648, -0,35614, 3,999939, 3,999939, 3,999939, 44,412909, -125,313191, 2,691691
1614249279,5817, 14, 0, 0,578674, -0,359314, 0,639648, -0,356201, 3,999939, 3,999939, 3,999939, 45,160601, -124,266423, 1,196307
1614249279,6128, 15, 0, 0,578607, -0,359314, 0,639709, -0,356201, 3,999939, 3,999939, 3,999939, 45,459678, -124,415961, 2,84123
1614249279,6441, 16, 0, 0,578674, -0,359314, 0,639648, -0,356201, 3,999939, 3,999939, 3,999939, 45,609216, -125,313191, 2,243076
1614249279,6754, 17, 0, 0,578561, -0,359375, 0,639648, -0,356323, 3,999939, 3,999939, 3,999939, 44,711986, -124,715038, 2,392615
1614249279,7067, 18, 0, 0,578561, -0,359375, 0,639648, -0,356323, 3,999939, 3,999939, 3,999939, 45,459678, -124,116884, 2,093538
1614249279,738, 19, 0, 0,578478, -0,359497, 0,639587, -0,356445, 3,999939, 3,999939, 3,999939, 46,057832, -124,266423, 2,990768
1614249279,7695, 20, 0, 0,578432, -0,359558, 0,639526, -0,356567, 3,999939, 3,999939, 3,999939, 44,861524, -123,817807, 0,89723
1614249279,8008, 21, 0, 0,578529, -0,359558, 0,639404, -0,356628, 3,999939, 3,999939, 3,999939, 45,609216, -124,266423, 3,439384
1614249279,832, 22, 0, 0,578567, -0,359497, 0,639404, -0,356628, 3,999939, 3,999939, 3,999939, 45,459678, -123,668269, 2,093538
1614249279,8631, 23, 0, 0,578575, -0,359436, 0,639465, -0,356567, 3,999939, 3,999939, 3,999939, 46,20737, -124,715038, 2,392615
1614249279,8943, 24, 0, 0,578576, -0,359375, 0,639465, -0,356628, 3,999939, 3,999939, 3,999939, 46,356909, -125,014115, 2,990768
1614249279,9258, 25, 0, 0,578576, -0,359375, 0,639465, -0,356628, 3,999939, 3,999939, 3,999939, 44,412909, -125,313191, 2,243076
1614249279,9571, 26, 0, 0,578651, -0,359314, 0,639465, -0,356567, 3,999939, 3,999939, 3,999939, 44,412909, -123,817807, 2,691691
1614249279,9882, 27, 0, 0,578689, -0,359314, 0,639465, -0,356506, 3,999939, 3,999939, 3,999939, 45,758755, -123,668269, 2,392615
1614249280,0193, 28, 0, 0,57874, -0,359375, 0,639282, -0,356689, 3,999939, 3,999939, 3,999939, 44,113832, -124,565499, 1,495384
1614249280,0506, 29, 0, 0,57874, -0,359436, 0,639282, -0,356628, 3,999939, 3,999939, 3,999939, 45,011063, -124,715038, 2,093538
1614249280,0819, 30, 0, 0,578748, -0,359375, 0,639343, -0,356567, 3,999939, 3,999939, 3,999939, 44,711986, -124,715038, 1,345846
1614249280,1132, 31, 0, 0,578786, -0,359314, 0,639343, -0,356567, 3,999939, 3,999939, 3,999939, 44,412909, -123,51873, 1,196307
1614249280,1445, 0, 0, 0,578816, -0,359314, 0,639282, -0,356628, 3,999939, 3,999939, 3,999939, 44,861524, -125,014115, 2,691691
1614249280,1758, 1, 0, 0,578816, -0,359314, 0,639282, -0,356628, 3,999939, 3,999939, 3,999939, 44,711986, -124,116884, 1,345846
1614249280,2069, 2, 0, 0,578711, -0,359375, 0,639343, -0,356628, 3,999939, 3,999939, 3,999939, 45,459678, -124,415961, 1,794461
1614249280,2381, 3, 0, 0,578681, -0,359375, 0,639404, -0,356567, 3,999939, 3,999939, 3,999939, 46,057832, -125,612268, 2,990768
1614249280,2694, 4, 0, 0,578673, -0,359375, 0,639343, -0,356689, 3,999939, 3,999939, 3,999939, 45,609216, -123,817807, 2,243076
1614249280,3007, 5, 0, 0,578665, -0,359375, 0,639282, -0,356812, 3,999939, 3,999939, 3,999939, 45,459678, -125,163653, 1,794461
1614249280,332, 6, 0, 0,578636, -0,359314, 0,639343, -0,356812, 3,999939, 3,999939, 3,999939, 44,711986, -124,116884, 2,093538
1614249280,3633, 7, 0, 0,578628, -0,359314, 0,639282, -0,356934, 3,999939, 3,999939, 3,999939, 46,057832, -123,817807, 2,243076
1614249280,3946, 8, 0, 0,578628, -0,359314, 0,639282, -0,356934, 3,999939, 3,999939, 3,999939, 45,160601, -124,565499, 1,495384
1614249280,4261, 9, 0, 0,578628, -0,359314, 0,639282, -0,356934, 3,999939, 3,999939, 3,999939, 45,011063, -125,163653, 2,392615
1614249280,4576, 10, 0, 0,578598, -0,359253, 0,639343, -0,356934, 3,999939, 3,999939, 3,999939, 45,160601, -125,313191, 2,691691
1614249280,4891, 11, 0, 0,578569, -0,359192, 0,639404, -0,356934, 3,999939, 3,999939, 3,999939, 43,665217, -125,014115, 1,196307
1614249280,5205, 12, 0, 0,578539, -0,35907, 0,639465, -0,356995, 3,999939, 3,999939, 3,999939, 45,011063, -124,116884, 1,345846
1614249280,5519, 13, 0, 0,578561, -0,359131, 0,639343, -0,357117, 3,999939, 3,999939, 3,999939, 44,711986, -124,715038, 2,093538
1614249280,5834, 14, 0, 0,578561, -0,359131, 0,639343, -0,357117, 3,999939, 3,999939, 3,999939, 45,609216, -122,771038, 2,243076
1614249280,6149, 15, 0, 0,578629, -0,35907, 0,639282, -0,357178, 3,999939, 3,999939, 3,999939, 46,20737, -123,668269, 1,794461
1614249280,6464, 16, 0, 0,578561, -0,359131, 0,639343, -0,357117, 3,999939, 3,999939, 3,999939, 45,011063, -123,369192, 1,794461
1614249280,6778, 17, 0, 0,578561, -0,359131, 0,639343, -0,357117, 3,999939, 3,999939, 3,999939, 44,861524, -126,35996, 3,439384
1614249280,7092, 18, 0, 0,578553, -0,359192, 0,639282, -0,357178, 3,999939, 3,999939, 3,999939, 44,861524, -125,313191, 2,243076
1614249280,7404, 19, 0, 0,578629, -0,35907, 0,639282, -0,357178, 3,999939, 3,999939, 3,999939, 45,609216, -125,612268, 1,495384
1614249280,7719, 20, 0, 0,578764, -0,35907, 0,63916, -0,357178, 3,999939, 3,999939, 3,999939, 46,356909, -125,612268, 1,196307
1614249280,8034, 21, 0, 0,578726, -0,359131, 0,63916, -0,357178, 3,999939, 3,999939, 3,999939, 45,459678, -124,715038, 2,84123
1614249280,8349, 22, 0, 0,578725, -0,359192, 0,63916, -0,357117, 3,999939, 3,999939, 3,999939, 45,459678, -125,163653, 1,794461
1614249280,8662, 23, 0, 0,578718, -0,359131, 0,639099, -0,3573, 3,999939, 3,999939, 3,999939, 46,506447, -123,668269, 1,794461
1614249280,8975, 24, 0, 0,578718, -0,359131, 0,639099, -0,3573, 3,999939, 3,999939, 3,999939, 45,758755, -124,116884, 3,588922
1614249280,9288, 25, 0, 0,578688, -0,35907, 0,63916, -0,3573, 3,999939, 3,999939, 3,999939, 45,609216, -124,565499, 1,943999
1614249280,9601, 26, 0, 0,578718, -0,359131, 0,639099, -0,3573, 3,999939, 3,999939, 3,999939, 45,609216, -123,51873, 1,943999
1614249280,9916, 27, 0, 0,578718, -0,359131, 0,639099, -0,3573, 3,999939, 3,999939, 3,999939, 47,104601, -125,014115, 1,196307
1614249281,0229, 28, 0, 0,578756, -0,35907, 0,639099, -0,3573, 3,999939, 3,999939, 3,999939, 45,160601, -125,612268, 2,691691
1614249281,054, 29, 0, 0,578755, -0,359192, 0,639099, -0,357178, 3,999939, 3,999939, 3,999939, 45,758755, -125,911345, 2,093538
1614249281,0851, 30, 0, 0,578718, -0,359192, 0,639099, -0,357239, 3,999939, 3,999939, 3,999939, 45,160601, -125,014115, 1,196307
1614249281,1163, 31, 0, 0,578709, -0,359253, 0,639038, -0,3573, 3,999939, 3,999939, 3,999939, 44,861524, -124,565499, 1,495384
1614249281,1478, 0, 0, 0,578852, -0,359192, 0,638977, -0,357239, 3,999939, 3,999939, 3,999939, 45,609216, -125,313191, 1,495384
1614249281,1793, 1, 0, 0,578709, -0,359253, 0,639038, -0,3573, 3,999939, 3,999939, 3,999939, 45,011063, -125,46273, 2,093538
1614249281,2106, 2, 0, 0,578709, -0,359253, 0,639038, -0,3573, 3,999939, 3,999939, 3,999939, 46,20737, -124,116884, 2,392615
1614249281,2419, 3, 0, 0,578709, -0,359253, 0,639038, -0,3573, 3,999939, 3,999939, 3,999939, 45,160601, -122,771038, 1,943999
1614249281,2733, 4, 0, 0,578815, -0,359192, 0,638977, -0,3573, 3,999939, 3,999939, 3,999939, 44,861524, -123,817807, 2,691691
1614249281,3046, 5, 0, 0,578777, -0,359192, 0,638977, -0,357361, 3,999939, 3,999939, 3,999939, 44,263371, -125,911345, 1,345846
1614249281,3361, 6, 0, 0,578844, -0,359253, 0,638916, -0,3573, 3,999939, 3,999939, 3,999939, 45,011063, -124,116884, 2,093538
1614249281,3674, 7, 0, 0,578874, -0,359314, 0,638855, -0,3573, 3,999939, 3,999939, 3,999939, 46,057832, -125,014115, 1,196307
1614249281,3985, 8, 0, 0,578836, -0,359375, 0,638855, -0,3573, 3,999939, 3,999939, 3,999939, 45,160601, -124,266423, 2,243076
1614249281,4296, 9, 0, 0,578806, -0,359375, 0,638916, -0,357239, 3,999939, 3,999939, 3,999939, 44,113832, -125,313191, 1,196307
1614249281,461, 10, 0, 0,578798, -0,359436, 0,638855, -0,3573, 3,999939, 3,999939, 3,999939, 44,861524, -124,565499, 0,448615
1614249281,4925, 11, 0, 0,578768, -0,359375, 0,638916, -0,3573, 3,999939, 3,999939, 3,999939, 46,057832, -124,266423, 1,943999
1614249281,524, 12, 0, 0,578701, -0,359314, 0,638977, -0,357361, 3,999939, 3,999939, 3,999939, 45,758755, -123,668269, 1,794461
1614249281,5555, 13, 0, 0,578731, -0,359375, 0,638916, -0,357361, 3,999939, 3,999939, 3,999939, 45,609216, -124,565499, 2,243076
1614249281,5868, 14, 0, 0,578739, -0,359314, 0,638977, -0,3573, 3,999939, 3,999939, 3,999939, 45,459678, -125,163653, 1,794461
1614249281,6181, 15, 0, 0,578731, -0,359314, 0,638916, -0,357422, 3,999939, 3,999939, 3,999939, 45,160601, -122,771038, 2,691691
1614249281,6496, 16, 0, 0,578731, -0,359314, 0,638916, -0,357422, 3,999939, 3,999939, 3,999939, 44,113832, -123,817807, 2,990768
1614249281,6809, 17, 0, 0,578836, -0,359314, 0,638855, -0,357361, 3,999939, 3,999939, 3,999939, 44,861524, -126,060883, 0,89723
1614249281,7122, 18, 0, 0,578769, -0,359314, 0,638916, -0,357361, 3,999939, 3,999939, 3,999939, 46,955062, -123,668269, 3,140307
1614249281,7434, 19, 0, 0,578874, -0,359314, 0,638855, -0,3573, 3,999939, 3,999939, 3,999939, 45,609216, -125,014115, 1,495384
1614249281,7749, 20, 0, 0,578798, -0,359314, 0,638855, -0,357422, 3,999939, 3,999939, 3,999939, 45,160601, -124,266423, 1,495384
1614249281,8061, 21, 0, 0,578874, -0,359253, 0,638855, -0,357361, 3,999939, 3,999939, 3,999939, 46,805524, -124,565499, 1,943999
1614249281,8373, 22, 0, 0,578836, -0,359253, 0,638855, -0,357422, 3,999939, 3,999939, 3,999939, 45,758755, -124,116884, 2,392615
1614249281,8688, 23, 0, 0,578866, -0,359253, 0,638794, -0,357483, 3,999939, 3,999939, 3,999939, 45,459678, -123,369192, 2,093538
1614249281,9003, 24, 0, 0,578895, -0,359253, 0,638733, -0,357544, 3,999939, 3,999939, 3,999939, 43,36614, -124,565499, 0,89723
1614249281,9318, 25, 0, 0,57879, -0,359314, 0,638794, -0,357544, 3,999939, 3,999939, 3,999939, 44,113832, -125,313191, 2,243076
1614249281,9631, 26, 0, 0,578866, -0,359253, 0,638794, -0,357483, 3,999939, 3,999939, 3,999939, 46,805524, -125,014115, 1,943999
1614249281,9944, 27, 0, 0,578828, -0,359253, 0,638794, -0,357544, 3,999939, 3,999939, 3,999939, 45,160601, -124,266423, 1,495384
1614249282,0261, 28, 0, 0,578828, -0,359314, 0,638794, -0,357483, 3,999939, 3,999939, 3,999939, 45,758755, -124,116884, 2,093538
1614249282,0575, 29, 0, 0,578798, -0,359314, 0,638855, -0,357422, 3,999939, 3,999939, 3,999939, 44,263371, -122,920577, 0,598154
1614249282,089, 30, 0, 0,578874, -0,359253, 0,638855, -0,357361, 3,999939, 3,999939, 3,999939, 43,665217, -124,266423, 2,243076
1614249282,1205, 31, 0, 0,578836, -0,359314, 0,638855, -0,357361, 3,999939, 3,999939, 3,999939, 45,011063, -125,911345, 1,345846
1614249282,152, 0, 0, 0,578798, -0,359436, 0,638855, -0,3573, 3,999939, 3,999939, 3,999939, 44,412909, -125,612268, 2,243076
1614249282,1836, 1, 0, 0,578836, -0,359375, 0,638855, -0,3573, 3,999939, 3,999939, 3,999939, 46,057832, -124,565499, 1,495384
1614249282,2151, 2, 0, 0,57897, -0,359375, 0,638733, -0,3573, 3,999939, 3,999939, 3,999939, 44,412909, -125,313191, 1,196307
1614249282,2466, 3, 0, 0,578933, -0,359375, 0,638733, -0,357361, 3,999939, 3,999939, 3,999939, 44,861524, -125,313191, 1,943999
1614249282,2781, 4, 0, 0,57897, -0,359375, 0,638733, -0,3573, 3,999939, 3,999939, 3,999939, 44,412909, -124,565499, 1,943999
1614249282,3096, 5, 0, 0,579076, -0,359314, 0,638672, -0,3573, 3,999939, 3,999939, 3,999939, 45,758755, -124,116884, 3,140307
1614249282,3411, 6, 0, 0,579151, -0,359253, 0,638672, -0,357239, 3,999939, 3,999939, 3,999939, 45,011063, -124,116884, 2,84123
1614249282,3724, 7, 0, 0,579143, -0,359314, 0,638611, -0,3573, 3,999939, 3,999939, 3,999939, 45,758755, -125,46273, 2,392615
1614249282,4039, 8, 0, 0,579038, -0,359375, 0,638672, -0,3573, 3,999939, 3,999939, 3,999939, 45,011063, -125,46273, 0
1614249282,4354, 9, 0, 0,57903, -0,359375, 0,638611, -0,357422, 3,999939, 3,999939, 3,999939, 46,20737, -124,415961, 2,093538
1614249282,4669, 10, 0, 0,579, -0,359375, 0,638672, -0,357361, 3,999939, 3,999939, 3,999939, 44,113832, -124,565499, 1,196307
1614249282,4985, 11, 0, 0,579, -0,359436, 0,638672, -0,3573, 3,999939, 3,999939, 3,999939, 47,403677, -123,369192, 3,588922
1614249282,53, 12, 0, 0,578924, -0,359436, 0,638672, -0,357422, 3,999939, 3,999939, 3,999939, 44,412909, -124,565499, 2,990768
1614249282,5615, 13, 0, 0,578991, -0,359558, 0,638611, -0,3573, 3,999939, 3,999939, 3,999939, 45,609216, -125,313191, 1,943999
1614249282,5928, 14, 0, 0,579089, -0,359497, 0,638489, -0,357422, 3,999939, 3,999939, 3,999939, 45,758755, -125,163653, 0,598154
1614249282,6243, 15, 0, 0,579097, -0,359497, 0,63855, -0,3573, 3,999939, 3,999939, 3,999939, 47,104601, -125,014115, 1,495384
1614249282,6558, 16, 0, 0,579097, -0,359497, 0,63855, -0,3573, 3,999939, 3,999939, 3,999939, 44,861524, -125,014115, 1,495384
1614249282,6873, 17, 0, 0,579029, -0,359558, 0,638611, -0,357239, 3,999939, 3,999939, 3,999939, 45,758755, -124,116884, 1,046769
1614249282,7188, 18, 0, 0,578954, -0,359558, 0,638611, -0,357361, 3,999939, 3,999939, 3,999939, 46,057832, -123,817807, 1,196307
1614249282,7502, 19, 0, 0,579067, -0,359497, 0,638611, -0,357239, 3,999939, 3,999939, 3,999939, 46,805524, -125,612268, 1,943999
1614249282,7815, 20, 0, 0,579029, -0,359558, 0,638611, -0,357239, 3,999939, 3,999939, 3,999939, 45,459678, -125,46273, 1,345846
1614249282,813, 21, 0, 0,579096, -0,359558, 0,63855, -0,357239, 3,999939, 3,999939, 3,999939, 45,011063, -124,715038, 3,887999
1614249282,8446, 22, 0, 0,579096, -0,359558, 0,63855, -0,357239, 3,999939, 3,999939, 3,999939, 46,955062, -125,911345, 2,84123
1614249282,8759, 23, 0, 0,57905, -0,359619, 0,638489, -0,357361, 3,999939, 3,999939, 3,999939, 46,057832, -124,266423, 0,89723
1614249282,9072, 24, 0, 0,578983, -0,359619, 0,63855, -0,357361, 3,999939, 3,999939, 3,999939, 45,160601, -125,014115, 1,495384
1614249282,9385, 25, 0, 0,578908, -0,35968, 0,63855, -0,357422, 3,999939, 3,999939, 3,999939, 44,861524, -126,060883, 3,439384
1614249282,97, 26, 0, 0,578908, -0,35968, 0,63855, -0,357422, 3,999939, 3,999939, 3,999939, 44,113832, -125,014115, 1,943999
1614249283,0015, 27, 0, 0,578908, -0,35968, 0,63855, -0,357422, 3,999939, 3,999939, 3,999939, 45,758755, -125,911345, 2,093538
1614249283,0328, 28, 0, 0,57884, -0,359741, 0,638611, -0,357361, 3,999939, 3,999939, 3,999939, 46,057832, -124,266423, 1,196307
1614249283,0639, 29, 0, 0,578878, -0,359741, 0,638611, -0,3573, 3,999939, 3,999939, 3,999939, 45,459678, -123,668269, 0,598154
1614249283,095, 30, 0, 0,578878, -0,359741, 0,638611, -0,3573, 3,999939, 3,999939, 3,999939, 45,758755, -124,715038, 1,794461
1614249283,1261, 31, 0, 0,578878, -0,359741, 0,638611, -0,3573, 3,999939, 3,999939, 3,999939, 45,011063, -125,911345, 1,794461
1614249283,1576, 0, 0, 0,578878, -0,359741, 0,638611, -0,3573, 3,999939, 3,999939, 3,999939, 46,20737, -124,415961, 3,140307
1614249283,1891, 1, 0, 0,578907, -0,359802, 0,63855, -0,3573, 3,999939, 3,999939, 3,999939, 43,067063, -124,116884, 3,140307
1614249283,2204, 2, 0, 0,578907, -0,359802, 0,63855, -0,3573, 3,999939, 3,999939, 3,999939, 45,609216, -125,612268, 0,89723
1614249283,2516, 3, 0, 0,578802, -0,359802, 0,638611, -0,357361, 3,999939, 3,999939, 3,999939, 44,412909, -123,219654, 1,196307
1614249283,2829, 4, 0, 0,57884, -0,359802, 0,638611, -0,3573, 3,999939, 3,999939, 3,999939, 44,861524, -124,565499, 2,990768
1614249283,3144, 5, 0, 0,578735, -0,359802, 0,638672, -0,357361, 3,999939, 3,999939, 3,999939, 46,805524, -125,014115, 2,990768
1614249283,3459, 6, 0, 0,578727, -0,359741, 0,638611, -0,357544, 3,999939, 3,999939, 3,999939, 44,263371, -124,715038, 0,299077
1614249283,3774, 7, 0, 0,578765, -0,359741, 0,638611, -0,357483, 3,999939, 3,999939, 3,999939, 45,011063, -124,415961, 1,046769
1614249283,4085, 8, 0, 0,578727, -0,359802, 0,638611, -0,357483, 3,999939, 3,999939, 3,999939, 46,20737, -124,715038, 1,794461
1614249283,4396, 9, 0, 0,578727, -0,359802, 0,638611, -0,357483, 3,999939, 3,999939, 3,999939, 44,711986, -125,163653, 2,392615
1614249283,4709, 10, 0, 0,578689, -0,359802, 0,638611, -0,357544, 3,999939, 3,999939, 3,999939, 44,113832, -124,266423, 1,495384
1614249283,5025, 11, 0, 0,578651, -0,359924, 0,638611, -0,357483, 3,999939, 3,999939, 3,999939, 44,861524, -123,817807, 2,990768
1614249283,534, 12, 0, 0,578584, -0,359802, 0,638672, -0,357605, 3,999939, 3,999939, 3,999939, 46,356909, -124,266423, 1,943999
1614249283,5656, 13, 0, 0,578516, -0,359802, 0,638733, -0,357605, 3,999939, 3,999939, 3,999939, 44,861524, -124,565499, 2,990768
1614249283,5969, 14, 0, 0,578622, -0,359741, 0,638672, -0,357605, 3,999939, 3,999939, 3,999939, 44,113832, -123,51873, 2,243076
1614249283,6284, 15, 0, 0,578689, -0,359863, 0,638611, -0,357483, 3,999939, 3,999939, 3,999939, 46,057832, -125,014115, 1,943999
1614249283,6599, 16, 0, 0,578592, -0,359863, 0,638733, -0,357422, 3,999939, 3,999939, 3,999939, 44,861524, -125,612268, 2,243076
1614249283,6914, 17, 0, 0,578667, -0,359863, 0,638733, -0,3573, 3,999939, 3,999939, 3,999939, 45,758755, -122,920577, 2,093538
1614249283,7227, 18, 0, 0,578667, -0,359863, 0,638733, -0,3573, 3,999939, 3,999939, 3,999939, 44,861524, -125,313191, 1,196307
1614249283,7538, 19, 0, 0,578696, -0,359924, 0,638672, -0,3573, 3,999939, 3,999939, 3,999939, 45,459678, -124,715038, 1,345846
1614249283,7851, 20, 0, 0,578726, -0,359985, 0,638611, -0,3573, 3,999939, 3,999939, 3,999939, 45,758755, -124,116884, 1,345846
1614249283,8162, 21, 0, 0,578726, -0,359985, 0,638611, -0,3573, 3,999939, 3,999939, 3,999939, 45,609216, -125,014115, 2,990768
1614249283,8477, 22, 0, 0,578621, -0,360046, 0,638672, -0,3573, 3,999939, 3,999939, 3,999939, 45,758755, -124,715038, 2,392615
1614249283,8793, 23, 0, 0,578583, -0,360107, 0,638672, -0,3573, 3,999939, 3,999939, 3,999939, 44,113832, -124,565499, 2,691691
1614249283,9107, 24, 0, 0,578545, -0,360168, 0,638672, -0,3573, 3,999939, 3,999939, 3,999939, 45,160601, -123,817807, 1,495384
1614249283,9419, 25, 0, 0,578545, -0,360168, 0,638672, -0,3573, 3,999939, 3,999939, 3,999939, 46,356909, -125,014115, 1,196307
1614249283,9731, 26, 0, 0,578612, -0,360229, 0,638611, -0,357239, 3,999939, 3,999939, 3,999939, 46,20737, -124,116884, 2,392615
1614249284,0044, 27, 0, 0,578679, -0,360168, 0,63855, -0,3573, 3,999939, 3,999939, 3,999939, 45,609216, -125,313191, 2,243076
1614249284,0359, 28, 0, 0,578717, -0,360107, 0,63855, -0,3573, 3,999939, 3,999939, 3,999939, 46,057832, -124,565499, 2,243076
1614249284,0672, 29, 0, 0,578717, -0,360107, 0,63855, -0,3573, 3,999939, 3,999939, 3,999939, 45,609216, -124,565499, 2,243076
1614249284,0983, 30, 0, 0,578726, -0,359985, 0,638611, -0,3573, 3,999939, 3,999939, 3,999939, 46,506447, -125,911345, 1,046769
1614249284,1296, 31, 0, 0,578755, -0,359985, 0,63855, -0,357361, 3,999939, 3,999939, 3,999939, 45,459678, -123,668269, 1,345846
1614249284,1611, 0, 0, 0,578898, -0,359924, 0,638489, -0,3573, 3,999939, 3,999939, 3,999939, 45,011063, -125,46273, 2,392615
1614249284,1927, 1, 0, 0,578898, -0,359924, 0,638489, -0,3573, 3,999939, 3,999939, 3,999939, 46,20737, -124,415961, 0
1614249284,2243, 2, 0, 0,578793, -0,359924, 0,63855, -0,357361, 3,999939, 3,999939, 3,999939, 44,263371, -124,415961, 2,093538
1614249284,2558, 3, 0, 0,578823, -0,359924, 0,638489, -0,357422, 3,999939, 3,999939, 3,999939, 46,356909, -123,817807, 0,89723
1614249284,2873, 4, 0, 0,578793, -0,359924, 0,63855, -0,357361, 3,999939, 3,999939, 3,999939, 46,057832, -125,313191, 1,196307
1614249284,3188, 5, 0, 0,578726, -0,359863, 0,638611, -0,357422, 3,999939, 3,999939, 3,999939, 44,861524, -125,313191, 1,196307
1614249284,3504, 6, 0, 0,578726, -0,359863, 0,638611, -0,357422, 3,999939, 3,999939, 3,999939, 45,160601, -126,35996, 2,990768
1614249284,3819, 7, 0, 0,578659, -0,359802, 0,638672, -0,357483, 3,999939, 3,999939, 3,999939, 44,113832, -124,266423, 0,448615
1614249284,4134, 8, 0, 0,578802, -0,359741, 0,638611, -0,357422, 3,999939, 3,999939, 3,999939, 46,20737, -125,163653, 2,093538
1614249284,4449, 9, 0, 0,578802, -0,359741, 0,638611, -0,357422, 3,999939, 3,999939, 3,999939, 46,805524, -125,313191, 1,495384
1614249284,4764, 10, 0, 0,578803, -0,35968, 0,638611, -0,357483, 3,999939, 3,999939, 3,999939, 44,861524, -125,612268, 1,943999
1614249284,508, 11, 0, 0,578735, -0,35968, 0,638672, -0,357483, 3,999939, 3,999939, 3,999939, 46,20737, -124,116884, 3,140307
1614249284,5395, 12, 0, 0,578727, -0,359741, 0,638611, -0,357544, 3,999939, 3,999939, 3,999939, 45,758755, -124,715038, 2,84123
1614249284,571, 13, 0, 0,578622, -0,359741, 0,638672, -0,357605, 3,999939, 3,999939, 3,999939, 44,711986, -123,668269, 2,392615
1614249284,6025, 14, 0, 0,578719, -0,359802, 0,63855, -0,357605, 3,999939, 3,999939, 3,999939, 46,356909, -125,014115, 1,196307
1614249284,634, 15, 0, 0,578643, -0,359802, 0,63855, -0,357727, 3,999939, 3,999939, 3,999939, 46,506447, -124,415961, 3,140307
1614249284,6655, 16, 0, 0,578681, -0,359802, 0,63855, -0,357666, 3,999939, 3,999939, 3,999939, 46,057832, -124,266423, 1,196307
1614249284,697, 17, 0, 0,578576, -0,359802, 0,638611, -0,357727, 3,999939, 3,999939, 3,999939, 45,011063, -125,46273, 0,598154
1614249284,7285, 18, 0, 0,578613, -0,359802, 0,638611, -0,357666, 3,999939, 3,999939, 3,999939, 44,861524, -124,266423, 1,495384
1614249284,76, 19, 0, 0,578643, -0,359802, 0,63855, -0,357727, 3,999939, 3,999939, 3,999939, 45,609216, -124,266423, 1,196307
1614249284,7915, 20, 0, 0,578643, -0,359802, 0,63855, -0,357727, 3,999939, 3,999939, 3,999939, 46,356909, -125,014115, 2,243076
1614249284,823, 21, 0, 0,578681, -0,359741, 0,63855, -0,357727, 3,999939, 3,999939, 3,999939, 45,011063, -125,163653, 2,392615
1614249284,8545, 22, 0, 0,578643, -0,359802, 0,63855, -0,357727, 3,999939, 3,999939, 3,999939, 45,160601, -125,014115, 2,691691
1614249284,8861, 23, 0, 0,578576, -0,359863, 0,638611, -0,357666, 3,999939, 3,999939, 3,999939, 45,011063, -124,116884, 1,794461
1614249284,9177, 24, 0, 0,578605, -0,359863, 0,63855, -0,357727, 3,999939, 3,999939, 3,999939, 45,609216, -125,014115, 1,943999
1614249284,9492, 25, 0, 0,578605, -0,359863, 0,63855, -0,357727, 3,999939, 3,999939, 3,999939, 44,263371, -125,163653, 1,046769
1614249284,9807, 26, 0, 0,578643, -0,359802, 0,63855, -0,357727, 3,999939, 3,999939, 3,999939, 44,412909, -125,612268, 1,495384
1614249285,0122, 27, 0, 0,578643, -0,359741, 0,63855, -0,357788, 3,999939, 3,999939, 3,999939, 45,160601, -126,060883, 1,196307
1614249285,0437, 28, 0, 0,57874, -0,359802, 0,638428, -0,357788, 3,999939, 3,999939, 3,999939, 44,412909, -125,014115, 2,691691
1614249285,0752, 29, 0, 0,57874, -0,359802, 0,638428, -0,357788, 3,999939, 3,999939, 3,999939, 45,011063, -125,911345, 0,598154
1614249285,1067, 30, 0, 0,578643, -0,359741, 0,63855, -0,357788, 3,999939, 3,999939, 3,999939, 46,805524, -123,817807, 2,691691
1614249285,1382, 31, 0, 0,578606, -0,359741, 0,63855, -0,357849, 3,999939, 3,999939, 3,999939, 43,814755, -125,911345, 2,093538
1614249285,1697, 0, 0, 0,578606, -0,359741, 0,63855, -0,357849, 3,999939, 3,999939, 3,999939, 44,113832, -124,266423, 1,943999
1614249285,2012, 1, 0, 0,578606, -0,359741, 0,63855, -0,357849, 3,999939, 3,999939, 3,999939, 45,758755, -125,163653, 1,345846
1614249285,2327, 2, 0, 0,578606, -0,359741, 0,63855, -0,357849, 3,999939, 3,999939, 3,999939, 45,758755, -125,163653, 1,794461
1614249285,2643, 3, 0, 0,578606, -0,359741, 0,63855, -0,357849, 3,999939, 3,999939, 3,999939, 44,711986, -124,415961, 2,84123
1614249285,2958, 4, 0, 0,578568, -0,359741, 0,63855, -0,35791, 3,999939, 3,999939, 3,999939, 45,609216, -123,817807, 1,495384
1614249285,3273, 5, 0, 0,578597, -0,359741, 0,638489, -0,357971, 3,999939, 3,999939, 3,999939, 45,609216, -125,014115, 2,691691
1614249285,3588, 6, 0, 0,578627, -0,359802, 0,638428, -0,357971, 3,999939, 3,999939, 3,999939, 45,609216, -124,266423, 0,89723
1614249285,3903, 7, 0, 0,578635, -0,359802, 0,638489, -0,357849, 3,999939, 3,999939, 3,999939, 45,011063, -125,163653, 1,046769
1614249285,4218, 8, 0, 0,578635, -0,359802, 0,638489, -0,357849, 3,999939, 3,999939, 3,999939, 45,011063, -124,116884, 2,84123
1614249285,4533, 9, 0, 0,57853, -0,359863, 0,63855, -0,357849, 3,999939, 3,999939, 3,999939, 44,711986, -125,163653, 1,794461
1614249285,4848, 10, 0, 0,57853, -0,359802, 0,63855, -0,35791, 3,999939, 3,999939, 3,999939, 45,011063, -124,715038, 2,392615
